word,colour,stim_condition,correct_res,trials.thisRepN,trials.thisTrialN,trials.thisN,trials.thisIndex,trials_2.thisRepN,trials_2.thisTrialN,trials_2.thisN,trials_2.thisIndex,thisRow.t,notes,trial.started,fixation.started,text.started,key_resp.started,fixation.stopped,text.stopped,trial.stopped,key_resp.keys,key_resp.corr,key_resp.rt,key_resp.duration,thanks.started,text_2.started,text_2.stopped,thanks.stopped,participant,session,date,expName,psychopyVersion,frameRate,expStart,
RED,red,C,r,0,0,0,0,0,0,0,0,0.027082799933850765,,0.014340499881654978,0.027082799933850765,0.5043257996439934,0.5043257996439934,0.5388932996429503,5.003916000016034,8.18125469982624,r,1,7.581298999954015,None,,,,,528293,001,2024-08-16_11h40.18.522,stroop effect,2024.1.5,None,2024-08-16 11h40.25.145455 +0530,
RED,red,C,r,0,0,0,0,1,0,1,0,8.189489000011235,,8.183663199655712,8.189489000011235,8.687157099600881,8.687157099600881,8.703791699837893,13.187247199937701,20.856580999679863,r,1,12.167018600273877,None,,,,,528293,001,2024-08-16_11h40.18.522,stroop effect,2024.1.5,None,2024-08-16 11h40.25.145455 +0530,
RED,red,C,r,0,0,0,0,2,0,2,0,20.871010500006378,,20.857999899890274,20.871010500006378,21.3705329997465,21.3705329997465,21.3705329997465,,22.456158299930394,r,1,1.0822939998470247,None,,,,,528293,001,2024-08-16_11h40.18.522,stroop effect,2024.1.5,None,2024-08-16 11h40.25.145455 +0530,
RED,red,C,r,0,0,0,0,3,0,3,0,22.470433899667114,,22.457750299945474,22.470433899667114,22.97048159968108,22.97048159968108,22.97048159968108,,27.072714800015092,b,0,4.100465999916196,None,,,,,528293,001,2024-08-16_11h40.18.522,stroop effect,2024.1.5,None,2024-08-16 11h40.25.145455 +0530,
RED,red,C,r,0,0,0,0,4,0,4,0,27.08748699957505,,27.074048899579793,27.08748699957505,27.58712979964912,27.58712979964912,27.58712979964912,,28.05594679992646,b,0,0.45163049967959523,None,,,,,528293,001,2024-08-16_11h40.18.522,stroop effect,2024.1.5,None,2024-08-16 11h40.25.145455 +0530,
RED,red,C,r,0,0,0,0,,,,,,,,,,,,,,,,,,28.05732939997688,28.07093259971589,29.07946509961039,29.055359199643135,528293,001,2024-08-16_11h40.18.522,stroop effect,2024.1.5,None,2024-08-16 11h40.25.145455 +0530,
BLUE,red,I,r,0,1,1,2,0,0,0,0,29.07946509961039,,29.05758609995246,29.07946509961039,29.570594399701804,29.570594399701804,29.587122099939734,,31.62250729976222,r,1,2.0501574999652803,None,,,,,528293,001,2024-08-16_11h40.18.522,stroop effect,2024.1.5,None,2024-08-16 11h40.25.145455 +0530,
BLUE,red,I,r,0,1,1,2,1,0,1,0,31.63758309977129,,31.624195899814367,31.63758309977129,32.137229199986905,32.137229199986905,32.137229199986905,,33.324361299630255,r,1,1.1844088998623192,None,,,,,528293,001,2024-08-16_11h40.18.522,stroop effect,2024.1.5,None,2024-08-16 11h40.25.145455 +0530,
BLUE,red,I,r,0,1,1,2,2,0,2,0,33.33737890003249,,33.3255826998502,33.33737890003249,33.8372023999691,33.8372023999691,33.8372023999691,,37.089015499688685,r,1,3.250276000238955,None,,,,,528293,001,2024-08-16_11h40.18.522,stroop effect,2024.1.5,None,2024-08-16 11h40.25.145455 +0530,
BLUE,red,I,r,0,1,1,2,3,0,3,0,37.104154699947685,,37.09068779973313,37.104154699947685,37.603767399676144,37.603767399676144,37.603767399676144,42.103770199697465,45.90696019958705,r,1,8.300744900014251,None,,,,,528293,001,2024-08-16_11h40.18.522,stroop effect,2024.1.5,None,2024-08-16 11h40.25.145455 +0530,
BLUE,red,I,r,0,1,1,2,4,0,4,0,45.920916999690235,,45.90843309974298,45.920916999690235,46.42062309989706,46.42062309989706,46.42062309989706,,46.806448199786246,r,1,0.38364990008994937,None,,,,,528293,001,2024-08-16_11h40.18.522,stroop effect,2024.1.5,None,2024-08-16 11h40.25.145455 +0530,
BLUE,red,I,r,0,1,1,2,,,,,,,,,,,,,,,,,,46.80755279958248,46.82108759973198,47.82063869992271,47.80486059980467,528293,001,2024-08-16_11h40.18.522,stroop effect,2024.1.5,None,2024-08-16 11h40.25.145455 +0530,
BLUE,blue,C,b,0,2,2,3,0,0,0,0,47.82063869992271,,47.80700449971482,47.82063869992271,48.32028670003638,48.32028670003638,48.32028670003638,,51.35616789991036,b,1,3.0342230000533164,None,,,,,528293,001,2024-08-16_11h40.18.522,stroop effect,2024.1.5,None,2024-08-16 11h40.25.145455 +0530,
BLUE,blue,C,b,0,2,2,3,1,0,1,0,51.37120949989185,,51.357504799962044,51.37120949989185,51.87055329978466,51.87055329978466,51.87055329978466,,53.53948659962043,b,1,1.6508565000258386,None,,,,,528293,001,2024-08-16_11h40.18.522,stroop effect,2024.1.5,None,2024-08-16 11h40.25.145455 +0530,
BLUE,blue,C,b,0,2,2,3,2,0,2,0,53.554147199727595,,53.54051689989865,53.554147199727595,54.05366269964725,54.05366269964725,54.05366269964725,58.5535272997804,63.055436099879444,b,1,9.000537600368261,None,,,,,528293,001,2024-08-16_11h40.18.522,stroop effect,2024.1.5,None,2024-08-16 11h40.25.145455 +0530,
BLUE,blue,C,b,0,2,2,3,3,0,3,0,63.07080229977146,,63.05637379968539,63.07080229977146,63.5704756998457,63.5704756998457,63.5704756998457,,64.28960579959676,b,1,0.7171959998086095,None,,,,,528293,001,2024-08-16_11h40.18.522,stroop effect,2024.1.5,None,2024-08-16 11h40.25.145455 +0530,
BLUE,blue,C,b,0,2,2,3,4,0,4,0,64.30352699989453,,64.29076020000502,64.30352699989453,64.80390509963036,64.80390509963036,64.80390509963036,69.30370579985902,71.2394449999556,b,1,6.433545500040054,None,,,,,528293,001,2024-08-16_11h40.18.522,stroop effect,2024.1.5,None,2024-08-16 11h40.25.145455 +0530,
BLUE,blue,C,b,0,2,2,3,,,,,,,,,,,,,,,,,,71.2407232997939,71.25378259969875,72.2536166999489,72.23846909962595,528293,001,2024-08-16_11h40.18.522,stroop effect,2024.1.5,None,2024-08-16 11h40.25.145455 +0530,
RED,blue,I,b,0,3,3,1,0,0,0,0,72.2536166999489,,72.24079009983689,72.2536166999489,72.7538813999854,72.7538813999854,72.7538813999854,77.25377479987219,77.92323389975354,b,1,5.166454900056124,None,,,,,528293,001,2024-08-16_11h40.18.522,stroop effect,2024.1.5,None,2024-08-16 11h40.25.145455 +0530,
RED,blue,I,b,0,3,3,1,1,0,1,0,77.93744839960709,,77.92499519977719,77.93744839960709,78.43712919997051,78.43712919997051,78.43712919997051,,82.08866509981453,b,1,3.6351120001636446,None,,,,,528293,001,2024-08-16_11h40.18.522,stroop effect,2024.1.5,None,2024-08-16 11h40.25.145455 +0530,
RED,blue,I,b,0,3,3,1,2,0,2,0,82.10432849964127,,82.09041469963267,82.10432849964127,82.60382359987125,82.60382359987125,82.60382359987125,,83.4733380000107,b,1,0.8675486999563873,None,,,,,528293,001,2024-08-16_11h40.18.522,stroop effect,2024.1.5,None,2024-08-16 11h40.25.145455 +0530,
RED,blue,I,b,0,3,3,1,3,0,3,0,83.4874239997007,,83.47503919992596,83.4874239997007,83.9870813996531,83.9870813996531,83.9870813996531,,84.40654989983886,b,1,0.4178152997046709,None,,,,,528293,001,2024-08-16_11h40.18.522,stroop effect,2024.1.5,None,2024-08-16 11h40.25.145455 +0530,
RED,blue,I,b,0,3,3,1,4,0,4,0,84.42088829958811,,84.40759019972757,84.42088829958811,84.9203780000098,84.9203780000098,84.9203780000098,,85.78920019976795,b,1,0.867005200125277,None,,,,,528293,001,2024-08-16_11h40.18.522,stroop effect,2024.1.5,None,2024-08-16 11h40.25.145455 +0530,
RED,blue,I,b,0,3,3,1,,,,,,,,,,,,,,,,,,85.78984569991007,85.80381019972265,86.80376869998872,86.7885570996441,528293,001,2024-08-16_11h40.18.522,stroop effect,2024.1.5,None,2024-08-16 11h40.25.145455 +0530,
RED,red,C,r,1,0,4,0,0,0,0,0,86.80376869998872,,86.7909464999102,86.80376869998872,87.30402779998258,87.30402779998258,87.30402779998258,,88.70577179966494,r,1,1.4000623999163508,None,,,,,528293,001,2024-08-16_11h40.18.522,stroop effect,2024.1.5,None,2024-08-16 11h40.25.145455 +0530,
RED,red,C,r,1,0,4,0,1,0,1,0,88.72071349993348,,88.70723749976605,88.72071349993348,89.22049439977854,89.22049439977854,89.22049439977854,,92.75618569971994,r,1,3.5334942997433245,None,,,,,528293,001,2024-08-16_11h40.18.522,stroop effect,2024.1.5,None,2024-08-16 11h40.25.145455 +0530,
RED,red,C,r,1,0,4,0,2,0,2,0,92.77077419962734,,92.75714609958231,92.77077419962734,93.27031609974802,93.27031609974802,93.27031609974802,,96.55607379972935,r,1,3.2838867004029453,None,,,,,528293,001,2024-08-16_11h40.18.522,stroop effect,2024.1.5,None,2024-08-16 11h40.25.145455 +0530,
RED,red,C,r,1,0,4,0,3,0,3,0,96.57042229967192,,96.55761419981718,96.57042229967192,97.07039139978588,97.07039139978588,97.07039139978588,,100.5392137998715,r,1,3.4669937998987734,None,,,,,528293,001,2024-08-16_11h40.18.522,stroop effect,2024.1.5,None,2024-08-16 11h40.25.145455 +0530,
RED,red,C,r,1,0,4,0,4,0,4,0,100.5540157998912,,100.54014839977026,100.5540157998912,101.05373619962484,101.05373619962484,101.05373619962484,,101.73954649968073,r,1,0.6837078002281487,None,,,,,528293,001,2024-08-16_11h40.18.522,stroop effect,2024.1.5,None,2024-08-16 11h40.25.145455 +0530,
RED,red,C,r,1,0,4,0,,,,,,,,,,,,,,,,,,101.74015129962936,101.75363629963249,102.75358129991218,102.73822259996086,528293,001,2024-08-16_11h40.18.522,stroop effect,2024.1.5,None,2024-08-16 11h40.25.145455 +0530,
RED,blue,I,b,1,1,5,1,0,0,0,0,102.75358129991218,,102.73970989976078,102.75358129991218,103.2536011999473,103.2536011999473,103.2536011999473,,106.7058957000263,b,1,3.450569000095129,None,,,,,528293,001,2024-08-16_11h40.18.522,stroop effect,2024.1.5,None,2024-08-16 11h40.25.145455 +0530,
RED,blue,I,b,1,1,5,1,1,0,1,0,106.72044850001112,,106.70741869974881,106.72044850001112,107.22043599979952,107.22043599979952,107.22043599979952,,107.50661819986999,b,1,0.28405260015279055,None,,,,,528293,001,2024-08-16_11h40.18.522,stroop effect,2024.1.5,None,2024-08-16 11h40.25.145455 +0530,
RED,blue,I,b,1,1,5,1,2,0,2,0,107.52039909968153,,107.50750419963151,107.52039909968153,108.0205096998252,108.0205096998252,108.0205096998252,,108.32300179963931,b,1,0.3005065000616014,None,,,,,528293,001,2024-08-16_11h40.18.522,stroop effect,2024.1.5,None,2024-08-16 11h40.25.145455 +0530,
RED,blue,I,b,1,1,5,1,3,0,3,0,108.33727129967883,,108.32381649967283,108.33727129967883,108.8372092996724,108.8372092996724,108.8372092996724,,110.77187429973856,b,1,1.9333322001621127,None,,,,,528293,001,2024-08-16_11h40.18.522,stroop effect,2024.1.5,None,2024-08-16 11h40.25.145455 +0530,
RED,blue,I,b,1,1,5,1,4,0,4,0,110.78699349984527,,110.77229969995096,110.78699349984527,111.28702449984848,111.28702449984848,111.28702449984848,,113.23858049977571,b,1,1.9437249000184238,None,,,,,528293,001,2024-08-16_11h40.18.522,stroop effect,2024.1.5,None,2024-08-16 11h40.25.145455 +0530,
RED,blue,I,b,1,1,5,1,,,,,,,,,,,,,,,,,,113.23924349993467,113.25364100001752,114.25368159962818,114.23813049960881,528293,001,2024-08-16_11h40.18.522,stroop effect,2024.1.5,None,2024-08-16 11h40.25.145455 +0530,
BLUE,red,I,r,1,2,6,2,0,0,0,0,114.25368159962818,,114.23997200001031,114.25368159962818,114.75376049987972,114.75376049987972,114.75376049987972,,116.2226211996749,r,1,1.4669674998149276,None,,,,,528293,001,2024-08-16_11h40.18.522,stroop effect,2024.1.5,None,2024-08-16 11h40.25.145455 +0530,
BLUE,red,I,r,1,2,6,2,1,0,1,0,116.23699159966782,,116.22370909992605,116.23699159966782,116.7370679997839,116.7370679997839,116.7370679997839,121.23721609963104,170.03910419996828,r,1,53.30027909995988,None,,,,,528293,001,2024-08-16_11h40.18.522,stroop effect,2024.1.5,None,2024-08-16 11h40.25.145455 +0530,
BLUE,red,I,r,1,2,6,2,2,0,2,0,170.053503499832,,170.04020249983296,170.053503499832,170.55370249971747,170.55370249971747,170.55370249971747,,171.75553329987451,r,1,1.2000982998870313,None,,,,,528293,001,2024-08-16_11h40.18.522,stroop effect,2024.1.5,None,2024-08-16 11h40.25.145455 +0530,
BLUE,red,I,r,1,2,6,2,3,0,3,0,171.77041299967095,,171.757026899606,171.77041299967095,172.27036269987002,172.27036269987002,172.27036269987002,,172.38974759960547,r,1,0.11714350013062358,None,,,,,528293,001,2024-08-16_11h40.18.522,stroop effect,2024.1.5,None,2024-08-16 11h40.25.145455 +0530,
BLUE,red,I,r,1,2,6,2,4,0,4,0,172.40367419971153,,172.39069619961083,172.40367419971153,172.90363919967785,172.90363919967785,172.90363919967785,,174.35644709970802,r,1,1.4505624999292195,None,,,,,528293,001,2024-08-16_11h40.18.522,stroop effect,2024.1.5,None,2024-08-16 11h40.25.145455 +0530,
BLUE,red,I,r,1,2,6,2,,,,,,,,,,,,,,,,,,174.35714289965108,174.3702874998562,175.3703862996772,175.35503649991006,528293,001,2024-08-16_11h40.18.522,stroop effect,2024.1.5,None,2024-08-16 11h40.25.145455 +0530,
BLUE,blue,C,b,1,3,7,3,0,0,0,0,175.3703862996772,,175.35596109973267,175.3703862996772,175.87043839972466,175.87043839972466,175.87043839972466,,179.02313379989937,b,1,3.1505988999269903,None,,,,,528293,001,2024-08-16_11h40.18.522,stroop effect,2024.1.5,None,2024-08-16 11h40.25.145455 +0530,
BLUE,blue,C,b,1,3,7,3,1,0,1,0,179.0369041999802,,179.02460339991376,179.0369041999802,179.53700469993055,179.53700469993055,179.53700469993055,,180.1394112999551,b,1,0.6004486000165343,None,,,,,528293,001,2024-08-16_11h40.18.522,stroop effect,2024.1.5,None,2024-08-16 11h40.25.145455 +0530,
BLUE,blue,C,b,1,3,7,3,2,0,2,0,180.15376799972728,,180.14034589985386,180.15376799972728,180.6536445999518,180.6536445999518,180.6536445999518,185.1535066999495,189.4060092996806,b,1,8.750573000404984,None,,,,,528293,001,2024-08-16_11h40.18.522,stroop effect,2024.1.5,None,2024-08-16 11h40.25.145455 +0530,
BLUE,blue,C,b,1,3,7,3,3,0,3,0,189.42041049990803,,189.40718510001898,189.42041049990803,189.9202022999525,189.9202022999525,189.9202022999525,,190.40545619977638,b,1,0.4807617999613285,None,,,,,528293,001,2024-08-16_11h40.18.522,stroop effect,2024.1.5,None,2024-08-16 11h40.25.145455 +0530,
BLUE,blue,C,b,1,3,7,3,4,0,4,0,190.42026859987527,,190.40648939972743,190.42026859987527,190.92030539968982,190.92030539968982,190.92030539968982,195.4203455997631,195.50502919964492,b,1,4.580390299670398,None,,,,,528293,001,2024-08-16_11h40.18.522,stroop effect,2024.1.5,None,2024-08-16 11h40.25.145455 +0530,
BLUE,blue,C,b,1,3,7,3,,,,,,,,,,,,,,,,,,195.5059598996304,195.52033239975572,196.52032110001892,196.5045599997975,528293,001,2024-08-16_11h40.18.522,stroop effect,2024.1.5,None,2024-08-16 11h40.25.145455 +0530,
BLUE,red,I,r,2,0,8,2,0,0,0,0,196.52032110001892,,196.50659679993987,196.52032110001892,197.0206749998033,197.0206749998033,197.0206749998033,201.52025409974158,219.13933919975534,b,0,22.116810500156134,None,,,,,528293,001,2024-08-16_11h40.18.522,stroop effect,2024.1.5,None,2024-08-16 11h40.25.145455 +0530,
BLUE,red,I,r,2,0,8,2,1,0,1,0,219.15385429980233,,219.14012489980087,219.15385429980233,219.65353749971837,219.65353749971837,219.65353749971837,,220.4060001997277,b,0,0.7503847000189126,None,,,,,528293,001,2024-08-16_11h40.18.522,stroop effect,2024.1.5,None,2024-08-16 11h40.25.145455 +0530,
BLUE,red,I,r,2,0,8,2,2,0,2,0,220.42027089977637,,220.40747549990192,220.42027089977637,220.92066559987143,220.92066559987143,220.92066559987143,225.42045719968155,236.28921139985323,r,1,15.366515500005335,None,,,,,528293,001,2024-08-16_11h40.18.522,stroop effect,2024.1.5,None,2024-08-16 11h40.25.145455 +0530,
BLUE,red,I,r,2,0,8,2,3,0,3,0,236.30353859998286,,236.2903599999845,236.30353859998286,236.80352239962667,236.80352239962667,236.80352239962667,,237.93841760000214,r,1,1.1295362003147602,None,,,,,528293,001,2024-08-16_11h40.18.522,stroop effect,2024.1.5,None,2024-08-16 11h40.25.145455 +0530,
BLUE,red,I,r,2,0,8,2,4,0,4,0,237.95345619972795,,237.9393492997624,237.95345619972795,238.45342619996518,238.45342619996518,238.45342619996518,,238.77225979976356,r,1,0.3170990999788046,None,,,,,528293,001,2024-08-16_11h40.18.522,stroop effect,2024.1.5,None,2024-08-16 11h40.25.145455 +0530,
BLUE,red,I,r,2,0,8,2,,,,,,,,,,,,,,,,,,238.77295749960467,238.78689159965143,239.7867922997102,239.77143249986693,528293,001,2024-08-16_11h40.18.522,stroop effect,2024.1.5,None,2024-08-16 11h40.25.145455 +0530,
RED,blue,I,b,2,1,9,1,0,0,0,0,239.7867922997102,,239.77291529998183,239.7867922997102,240.28694529971108,240.28694529971108,240.28694529971108,,242.22203309973702,b,1,1.9334044996649027,None,,,,,528293,001,2024-08-16_11h40.18.522,stroop effect,2024.1.5,None,2024-08-16 11h40.25.145455 +0530,
RED,blue,I,b,2,1,9,1,1,0,1,0,242.23686959967017,,242.22260009963065,242.23686959967017,242.7370443996042,242.7370443996042,242.7370443996042,,245.22251180000603,b,1,2.4835045002400875,None,,,,,528293,001,2024-08-16_11h40.18.522,stroop effect,2024.1.5,None,2024-08-16 11h40.25.145455 +0530,
RED,blue,I,b,2,1,9,1,2,0,2,0,245.23687129979953,,245.2236992996186,245.23687129979953,245.73693419992924,245.73693419992924,245.73693419992924,250.23691179975867,251.7054094998166,b,1,5.966621899977326,None,,,,,528293,001,2024-08-16_11h40.18.522,stroop effect,2024.1.5,None,2024-08-16 11h40.25.145455 +0530,
RED,blue,I,b,2,1,9,1,3,0,3,0,251.7202403997071,,251.70624919980764,251.7202403997071,252.22031689994037,252.22031689994037,252.22031689994037,,252.9551923996769,b,1,0.7299629002809525,None,,,,,528293,001,2024-08-16_11h40.18.522,stroop effect,2024.1.5,None,2024-08-16 11h40.25.145455 +0530,
RED,blue,I,b,2,1,9,1,4,0,4,0,252.97001970000565,,252.9562629996799,252.97001970000565,253.47020389977843,253.47020389977843,253.47020389977843,,254.00513809965923,b,1,0.5335552003234625,None,,,,,528293,001,2024-08-16_11h40.18.522,stroop effect,2024.1.5,None,2024-08-16 11h40.25.145455 +0530,
RED,blue,I,b,2,1,9,1,,,,,,,,,,,,,,,,,,254.0058418000117,254.02025959966704,255.02018609968945,255.0045374999754,528293,001,2024-08-16_11h40.18.522,stroop effect,2024.1.5,None,2024-08-16 11h40.25.145455 +0530,
BLUE,blue,C,b,2,2,10,3,0,0,0,0,255.02018609968945,,255.00652119982988,255.02018609968945,255.5201929998584,255.5201929998584,255.5201929998584,,258.2222110996954,b,1,2.700343900360167,None,,,,,528293,001,2024-08-16_11h40.18.522,stroop effect,2024.1.5,None,2024-08-16 11h40.25.145455 +0530,
BLUE,blue,C,b,2,2,10,3,1,0,1,0,258.23691259976476,,258.2232928997837,258.23691259976476,258.73696179967374,258.73696179967374,258.73696179967374,,259.90537329996005,b,1,1.1668247999623418,None,,,,,528293,001,2024-08-16_11h40.18.522,stroop effect,2024.1.5,None,2024-08-16 11h40.25.145455 +0530,
BLUE,blue,C,b,2,2,10,3,2,0,2,0,259.9202498998493,,259.9061378999613,259.9202498998493,260.42029239982367,260.42029239982367,260.42029239982367,,260.4727407996543,b,1,0.05023689987137914,None,,,,,528293,001,2024-08-16_11h40.18.522,stroop effect,2024.1.5,None,2024-08-16 11h40.25.145455 +0530,
BLUE,blue,C,b,2,2,10,3,3,0,3,0,260.4868997996673,,260.47380119981244,260.4868997996673,260.98706239974126,260.98706239974126,260.98706239974126,,261.08848759997636,b,1,0.10012240009382367,None,,,,,528293,001,2024-08-16_11h40.18.522,stroop effect,2024.1.5,None,2024-08-16 11h40.25.145455 +0530,
BLUE,blue,C,b,2,2,10,3,4,0,4,0,261.1033583995886,,261.08941099978983,261.1033583995886,261.6036785999313,261.6036785999313,261.6036785999313,,261.7060426999815,b,1,0.10025910008698702,None,,,,,528293,001,2024-08-16_11h40.18.522,stroop effect,2024.1.5,None,2024-08-16 11h40.25.145455 +0530,
BLUE,blue,C,b,2,2,10,3,,,,,,,,,,,,,,,,,,261.706985199824,261.7203123997897,262.720226299949,262.70477389963344,528293,001,2024-08-16_11h40.18.522,stroop effect,2024.1.5,None,2024-08-16 11h40.25.145455 +0530,
RED,red,C,r,2,3,11,0,0,0,0,0,262.720226299949,,262.7067294996232,262.720226299949,263.2202561995946,263.2202561995946,263.2202561995946,,264.25501569965854,r,1,1.0307781998999417,None,,,,,528293,001,2024-08-16_11h40.18.522,stroop effect,2024.1.5,None,2024-08-16 11h40.25.145455 +0530,
RED,red,C,r,2,3,11,0,1,0,1,0,264.27021849993616,,264.25594689976424,264.27021849993616,264.770246299915,264.770246299915,264.770246299915,,265.2888245997019,r,1,0.5169409001246095,None,,,,,528293,001,2024-08-16_11h40.18.522,stroop effect,2024.1.5,None,2024-08-16 11h40.25.145455 +0530,
RED,red,C,r,2,3,11,0,2,0,2,0,265.3034991999157,,265.2895646998659,265.3034991999157,265.8034508000128,265.8034508000128,265.8034508000128,,266.5551096997224,r,1,0.747299799695611,None,,,,,528293,001,2024-08-16_11h40.18.522,stroop effect,2024.1.5,None,2024-08-16 11h40.25.145455 +0530,
RED,red,C,r,2,3,11,0,3,0,3,0,266.57043890003115,,266.5559258996509,266.57043890003115,267.07020619977266,267.07020619977266,267.07020619977266,,267.872356900014,r,1,0.7990641002543271,None,,,,,528293,001,2024-08-16_11h40.18.522,stroop effect,2024.1.5,None,2024-08-16 11h40.25.145455 +0530,
RED,red,C,r,2,3,11,0,4,0,4,0,267.8869297998026,,267.87342499988154,267.8869297998026,268.3869869997725,268.3869869997725,268.3869869997725,272.8868074999191,278.8058281997219,r,1,10.416882399935275,None,,,,,528293,001,2024-08-16_11h40.18.522,stroop effect,2024.1.5,None,2024-08-16 11h40.25.145455 +0530,
RED,red,C,r,2,3,11,0,,,,,,,,,,,,,,,,,,278.8065922996029,278.8202567999251,279.8201317996718,279.8044459996745,528293,001,2024-08-16_11h40.18.522,stroop effect,2024.1.5,None,2024-08-16 11h40.25.145455 +0530,
RED,blue,I,b,3,0,12,1,0,0,0,0,279.8201317996718,,279.80634219991043,279.8201317996718,280.32003289973363,280.32003289973363,280.32003289973363,,281.2391995997168,b,1,0.9172588996589184,None,,,,,528293,001,2024-08-16_11h40.18.522,stroop effect,2024.1.5,None,2024-08-16 11h40.25.145455 +0530,
RED,blue,I,b,3,0,12,1,1,0,1,0,281.25351619999856,,281.24034099979326,281.25351619999856,281.7536132996902,281.7536132996902,281.7536132996902,,283.02274239994586,b,1,1.2670987998135388,None,,,,,528293,001,2024-08-16_11h40.18.522,stroop effect,2024.1.5,None,2024-08-16 11h40.25.145455 +0530,
RED,blue,I,b,3,0,12,1,2,0,2,0,283.0367661998607,,283.02342669991776,283.0367661998607,283.5368790999055,283.5368790999055,283.5368790999055,,284.22234919993207,b,1,0.6801979998126626,None,,,,,528293,001,2024-08-16_11h40.18.522,stroop effect,2024.1.5,None,2024-08-16 11h40.25.145455 +0530,
RED,blue,I,b,3,0,12,1,3,0,3,0,284.23679480003193,,284.22368039982393,284.23679480003193,284.7370339999907,284.7370339999907,284.7370339999907,,284.87283169990405,b,1,0.13344109989702702,None,,,,,528293,001,2024-08-16_11h40.18.522,stroop effect,2024.1.5,None,2024-08-16 11h40.25.145455 +0530,
,,,,,,,,,,,,284.8867359999567,,284.87332549970597,284.8867359999567,285.386888299603,285.386888299603,285.386888299603,,,,,,,,,,,,,,,,,,
