word,colour,stim_condition,correct_res,trials.thisRepN,trials.thisTrialN,trials.thisN,trials.thisIndex,thisRow.t,notes,ins.started,text_3.started,ins.stopped,trial.started,fixation.started,text.started,key_resp.started,fixation.stopped,trial.stopped,key_resp.keys,key_resp.corr,key_resp.rt,key_resp.duration,text.stopped,thanks.started,text_2.started,text_2.stopped,thanks.stopped,participant,session,date,expName,psychopyVersion,frameRate,expStart,
,,,,,,,,,,0.013366499915719032,0.01858199993148446,1.0098122996278107,,,,,,,,,,,,,,,,959098,001,2024-08-16_11h55.33.304,stroop effect,2024.1.5,None,2024-08-16 11h55.43.281567 +0530,
BLUE,blue,C,b,0,0,0,3,1.0259720999747515,,,,,1.0181537996977568,1.0259720999747515,1.511455100029707,1.511455100029707,1.5267962999641895,2.7473338996060193,b,1,1.221372399944812,None,,,,,,959098,001,2024-08-16_11h55.33.304,stroop effect,2024.1.5,None,2024-08-16 11h55.43.281567 +0530,
BLUE,red,I,r,0,1,1,2,2.7595194997265935,,,,,2.748354099690914,2.7595194997265935,3.259670099709183,3.259670099709183,3.259670099709183,4.244447799865156,r,1,0.9746898002922535,None,,,,,,959098,001,2024-08-16_11h55.33.304,stroop effect,2024.1.5,None,2024-08-16 11h55.43.281567 +0530,
RED,red,C,r,0,2,2,0,4.259540199767798,,,,,4.2454635999165475,4.259540199767798,4.759576699696481,4.759576699696481,4.759576699696481,5.777567799668759,r,1,1.0052777002565563,None,,,,,,959098,001,2024-08-16_11h55.33.304,stroop effect,2024.1.5,None,2024-08-16 11h55.43.281567 +0530,
RED,blue,I,b,0,3,3,1,5.793357899878174,,,,,5.778668199665844,5.793357899878174,6.292859300039709,6.292859300039709,6.292859300039709,7.27782589988783,b,1,0.9747121999971569,None,,,,,,959098,001,2024-08-16_11h55.33.304,stroop effect,2024.1.5,None,2024-08-16 11h55.43.281567 +0530,
RED,red,C,r,1,0,4,0,7.292731299996376,,,,,7.279005500022322,7.292731299996376,7.793262899853289,7.793262899853289,7.793262899853289,8.678749799728394,r,1,0.8733787001110613,None,,,,,,959098,001,2024-08-16_11h55.33.304,stroop effect,2024.1.5,None,2024-08-16 11h55.43.281567 +0530,
BLUE,blue,C,b,1,1,5,3,8.693825599737465,,,,,8.681105599738657,8.693825599737465,9.193070499692112,9.193070499692112,9.193070499692112,9.946434899698943,b,1,0.7500718999654055,None,,,,,,959098,001,2024-08-16_11h55.33.304,stroop effect,2024.1.5,None,2024-08-16 11h55.43.281567 +0530,
BLUE,red,I,r,1,2,6,2,9.960236399900168,,,,,9.947553799953312,9.960236399900168,10.460001999977976,10.460001999977976,10.460001999977976,11.227979299612343,r,1,0.7574698003008962,None,,,,,,959098,001,2024-08-16_11h55.33.304,stroop effect,2024.1.5,None,2024-08-16 11h55.43.281567 +0530,
RED,blue,I,b,1,3,7,1,11.243322699796408,,,,,11.229031499940902,11.243322699796408,11.743103199638426,11.743103199638426,11.743103199638426,12.827947699930519,b,1,1.074821799993515,None,,,,,,959098,001,2024-08-16_11h55.33.304,stroop effect,2024.1.5,None,2024-08-16 11h55.43.281567 +0530,
RED,red,C,r,2,0,8,0,12.843749899882823,,,,,12.829120399896055,12.843749899882823,13.3426741999574,13.3426741999574,13.3426741999574,14.061255400069058,r,1,0.707882100250572,None,,,,,,959098,001,2024-08-16_11h55.33.304,stroop effect,2024.1.5,None,2024-08-16 11h55.43.281567 +0530,
RED,blue,I,b,2,1,9,1,14.07681699981913,,,,,14.06227339990437,14.07681699981913,14.611214799806476,14.611214799806476,14.611214799806476,19.877806999720633,b,1,5.249732300173491,None,19.076426199637353,,,,,959098,001,2024-08-16_11h55.33.304,stroop effect,2024.1.5,None,2024-08-16 11h55.43.281567 +0530,
BLUE,red,I,r,2,2,10,2,19.892712200060487,,,,,19.879127399995923,19.892712200060487,20.392679099924862,20.392679099924862,20.392679099924862,21.111191099975258,r,1,0.703885699622333,None,,,,,,959098,001,2024-08-16_11h55.33.304,stroop effect,2024.1.5,None,2024-08-16 11h55.43.281567 +0530,
BLUE,blue,C,b,2,3,11,3,21.125998499803245,,,,,21.112449700012803,21.125998499803245,21.626115899998695,21.626115899998695,21.626115899998695,22.244553699623793,b,1,0.6009626002050936,None,,,,,,959098,001,2024-08-16_11h55.33.304,stroop effect,2024.1.5,None,2024-08-16 11h55.43.281567 +0530,
BLUE,red,I,r,3,0,12,2,22.259536999743432,,,,,22.245814200025052,22.259536999743432,22.75955449976027,22.75955449976027,22.75955449976027,23.294768599793315,r,1,0.52356499992311,None,,,,,,959098,001,2024-08-16_11h55.33.304,stroop effect,2024.1.5,None,2024-08-16 11h55.43.281567 +0530,
RED,red,C,r,3,1,13,0,23.309407099615782,,,,,23.296080799773335,23.309407099615782,23.809393199626356,23.809393199626356,23.809393199626356,24.561503999866545,r,1,0.7493227999657393,None,,,,,,959098,001,2024-08-16_11h55.33.304,stroop effect,2024.1.5,None,2024-08-16 11h55.43.281567 +0530,
RED,blue,I,b,3,2,14,1,24.575963499955833,,,,,24.562985199969262,24.575963499955833,25.076295000035316,25.076295000035316,25.076295000035316,25.845376499928534,b,1,0.7668599002063274,None,,,,,,959098,001,2024-08-16_11h55.33.304,stroop effect,2024.1.5,None,2024-08-16 11h55.43.281567 +0530,
BLUE,blue,C,b,3,3,15,3,25.859426300041378,,,,,25.847090899944305,25.859426300041378,26.359283099882305,26.359283099882305,26.359283099882305,26.760804999619722,b,1,0.38736920012161136,None,,,,,,959098,001,2024-08-16_11h55.33.304,stroop effect,2024.1.5,None,2024-08-16 11h55.43.281567 +0530,
RED,blue,I,b,4,0,16,1,26.776105899829417,,,,,26.76209079986438,26.776105899829417,27.276173199992627,27.276173199992627,27.276173199992627,27.61121549969539,b,1,0.32720790011808276,None,,,,,,959098,001,2024-08-16_11h55.33.304,stroop effect,2024.1.5,None,2024-08-16 11h55.43.281567 +0530,
BLUE,blue,C,b,4,1,17,3,27.6261545997113,,,,,27.61432070005685,27.6261545997113,28.126960499677807,28.126960499677807,28.126960499677807,28.494282399769872,b,1,0.3527578003704548,None,,,,,,959098,001,2024-08-16_11h55.33.304,stroop effect,2024.1.5,None,2024-08-16 11h55.43.281567 +0530,
BLUE,red,I,r,4,2,18,2,28.509536299854517,,,,,28.495620099827647,28.509536299854517,29.009302199818194,29.009302199818194,29.009302199818194,29.29432989982888,b,0,0.2773111001588404,None,,,,,,959098,001,2024-08-16_11h55.33.304,stroop effect,2024.1.5,None,2024-08-16 11h55.43.281567 +0530,
RED,red,C,r,4,3,19,0,29.309371499810368,,,,,29.29554619966075,29.309371499810368,29.809464700054377,29.809464700054377,29.809464700054377,30.427473799791187,r,1,0.6053387001156807,None,,,,,,959098,001,2024-08-16_11h55.33.304,stroop effect,2024.1.5,None,2024-08-16 11h55.43.281567 +0530,
BLUE,blue,C,b,5,0,20,3,30.442733000032604,,,,,30.428677699994296,30.442733000032604,30.94286930002272,30.94286930002272,30.94286930002272,31.544380499981344,b,1,0.5971156000159681,None,,,,,,959098,001,2024-08-16_11h55.33.304,stroop effect,2024.1.5,None,2024-08-16 11h55.43.281567 +0530,
BLUE,red,I,r,5,1,21,2,31.55948100006208,,,,,31.545641100034118,31.55948100006208,32.059519599657506,32.059519599657506,32.059519599657506,32.69457089994103,r,1,0.6258503003045917,None,,,,,,959098,001,2024-08-16_11h55.33.304,stroop effect,2024.1.5,None,2024-08-16 11h55.43.281567 +0530,
RED,blue,I,b,5,2,22,1,32.70945969969034,,,,,32.695840099826455,32.70945969969034,33.20972999976948,33.20972999976948,33.20972999976948,34.6273014000617,b,1,1.4008022001944482,None,,,,,,959098,001,2024-08-16_11h55.33.304,stroop effect,2024.1.5,None,2024-08-16 11h55.43.281567 +0530,
RED,red,C,r,5,3,23,0,34.64281259989366,,,,,34.62858140002936,34.64281259989366,35.14299179986119,35.14299179986119,35.14299179986119,35.66025199973956,r,1,0.5022079995833337,None,,,,,,959098,001,2024-08-16_11h55.33.304,stroop effect,2024.1.5,None,2024-08-16 11h55.43.281567 +0530,
RED,red,C,r,6,0,24,0,35.67602099990472,,,,,35.66142569994554,35.67602099990472,36.175984899979085,36.175984899979085,36.175984899979085,36.69385109981522,r,1,0.5035683996975422,None,,,,,,959098,001,2024-08-16_11h55.33.304,stroop effect,2024.1.5,None,2024-08-16 11h55.43.281567 +0530,
RED,blue,I,b,6,1,25,1,36.70940029993653,,,,,36.69512079982087,36.70940029993653,37.20937559986487,37.20937559986487,37.20937559986487,37.57657019980252,b,1,0.3510098997503519,None,,,,,,959098,001,2024-08-16_11h55.33.304,stroop effect,2024.1.5,None,2024-08-16 11h55.43.281567 +0530,
BLUE,red,I,r,6,2,26,2,37.59264639997855,,,,,37.57774579990655,37.59264639997855,38.09268939960748,38.09268939960748,38.09268939960748,38.57783219963312,r,1,0.46937020029872656,None,,,,,,959098,001,2024-08-16_11h55.33.304,stroop effect,2024.1.5,None,2024-08-16 11h55.43.281567 +0530,
BLUE,blue,C,b,6,3,27,3,38.59256869973615,,,,,38.57902559963986,38.59256869973615,39.092811099719256,39.092811099719256,39.092811099719256,39.59452769998461,b,1,0.48856749990954995,None,,,,,,959098,001,2024-08-16_11h55.33.304,stroop effect,2024.1.5,None,2024-08-16 11h55.43.281567 +0530,
RED,red,C,r,7,0,28,0,39.609499800018966,,,,,39.59582759998739,39.609499800018966,40.10946880001575,40.10946880001575,40.10946880001575,40.477700599934906,r,1,0.3606046000495553,None,,,,,,959098,001,2024-08-16_11h55.33.304,stroop effect,2024.1.5,None,2024-08-16 11h55.43.281567 +0530,
BLUE,blue,C,b,7,1,29,3,40.49279669998214,,,,,40.47946619987488,40.49279669998214,40.99274699995294,40.99274699995294,40.99274699995294,41.34350039996207,b,1,0.3365201996639371,None,,,,,,959098,001,2024-08-16_11h55.33.304,stroop effect,2024.1.5,None,2024-08-16 11h55.43.281567 +0530,
RED,blue,I,b,7,2,30,1,41.35933410003781,,,,,41.34475959977135,41.35933410003781,41.859502099920064,41.859502099920064,41.859502099920064,42.193663199897856,r,0,0.3232561000622809,None,,,,,,959098,001,2024-08-16_11h55.33.304,stroop effect,2024.1.5,None,2024-08-16 11h55.43.281567 +0530,
BLUE,red,I,r,7,3,31,2,42.20954889990389,,,,,42.1942878998816,42.20954889990389,42.70943279983476,42.70943279983476,42.70943279983476,43.077361499890685,b,0,0.35153310000896454,None,,,,,,959098,001,2024-08-16_11h55.33.304,stroop effect,2024.1.5,None,2024-08-16 11h55.43.281567 +0530,
BLUE,blue,C,b,8,0,32,3,43.09260499989614,,,,,43.078968700021505,43.09260499989614,43.59277419978753,43.59277419978753,43.59277419978753,45.42671349970624,b,1,1.8206402999348938,None,,,,,,959098,001,2024-08-16_11h55.33.304,stroop effect,2024.1.5,None,2024-08-16 11h55.43.281567 +0530,
RED,red,C,r,8,1,33,0,45.44278799975291,,,,,45.42787839984521,45.44278799975291,45.94275729963556,45.94275729963556,45.94275729963556,46.71198279969394,r,1,0.7670127004384995,None,,,,,,959098,001,2024-08-16_11h55.33.304,stroop effect,2024.1.5,None,2024-08-16 11h55.43.281567 +0530,
RED,blue,I,b,8,2,34,1,46.72626469982788,,,,,46.713825199753046,46.72626469982788,47.22601669980213,47.22601669980213,47.22601669980213,47.79442539997399,b,1,0.5589796998538077,None,,,,,,959098,001,2024-08-16_11h55.33.304,stroop effect,2024.1.5,None,2024-08-16 11h55.43.281567 +0530,
BLUE,red,I,r,8,3,35,2,47.80964790005237,,,,,47.79553399980068,47.80964790005237,48.30939849978313,48.30939849978313,48.30939849978313,49.12738549988717,r,1,0.8150873999111354,None,,,,,,959098,001,2024-08-16_11h55.33.304,stroop effect,2024.1.5,None,2024-08-16 11h55.43.281567 +0530,
BLUE,blue,C,b,9,0,36,3,49.14292999962345,,,,,49.12851189961657,49.14292999962345,49.64275339990854,49.64275339990854,49.64275339990854,50.043572899885476,r,0,0.3858298999257386,None,,,,,,959098,001,2024-08-16_11h55.33.304,stroop effect,2024.1.5,None,2024-08-16 11h55.43.281567 +0530,
BLUE,red,I,r,9,1,37,2,50.05943610006943,,,,,50.04477049969137,50.05943610006943,50.55961130000651,50.55961130000651,50.55961130000651,51.660649499855936,b,0,1.0951231000944972,None,,,,,,959098,001,2024-08-16_11h55.33.304,stroop effect,2024.1.5,None,2024-08-16 11h55.43.281567 +0530,
RED,blue,I,b,9,2,38,1,51.67603229964152,,,,,51.66193319996819,51.67603229964152,52.17627379996702,52.17627379996702,52.17627379996702,53.52779529988766,b,1,1.3423386998474598,None,,,,,,959098,001,2024-08-16_11h55.33.304,stroop effect,2024.1.5,None,2024-08-16 11h55.43.281567 +0530,
RED,red,C,r,9,3,39,0,53.54279810003936,,,,,53.529591999948025,53.54279810003936,54.04274219973013,54.04274219973013,54.04274219973013,54.74465069966391,r,1,0.6951158000156283,None,,,,,,959098,001,2024-08-16_11h55.33.304,stroop effect,2024.1.5,None,2024-08-16 11h55.43.281567 +0530,
,,,,,,,,,,,,,,,,,,,,,,,,54.74588689999655,54.75954889971763,55.75932879978791,55.74395480006933,959098,001,2024-08-16_11h55.33.304,stroop effect,2024.1.5,None,2024-08-16 11h55.43.281567 +0530,
