delay,freq,condition,trials.thisRepN,trials.thisTrialN,trials.thisN,trials.thisIndex,thisRow.t,notes,trial.started,polygon.started,polygon_2.started,key_resp.started,polygon.stopped,trial.stopped,key_resp.keys,key_resp.rt,key_resp.duration,beep.started,sound_1.started,sound_1.stopped,beep.stopped,response.started,text.started,textbox.started,button.started,response.stopped,textbox.text,button.numClicks,button.timesOn,button.timesOff,participant,session,date,expName,psychopyVersion,frameRate,expStart,
0.7,1000,exp,0,0,0,5,0.01516389986500144,,0.012257299851626158,0.01516389986500144,1.0120715000666678,1.0120715000666678,1.0286427000537515,1.3852355000562966,space,0.3663381999358535,None,1.3866485999897122,2.095233166652421,2.4173528999090195,2.398444499820471,2.3985266997478902,2.4173528999090195,2.4173528999090195,2.4173528999090195,5.046625399962068,200,1,[2.645039699971676],[2.6450467999093235],0001,001,2024-11-11_08h51.53.569,Intentional building,2024.1.5,None,2024-11-11 08h52.05.649577 +0530,
0.7,1000,exp,0,1,1,11,5.062622199766338,,5.047867000102997,5.062622199766338,6.062140199821442,6.062140199821442,6.062140199821442,6.763748200144619,space,0.6872884999029338,None,6.765170299913734,7.478840466650824,7.786316699814051,7.777890199795365,7.777915900107473,7.786316699814051,7.786316699814051,7.786316699814051,10.196550799999386,300,1,[2.417237799614668],[2.4172442997805774],0001,001,2024-11-11_08h51.53.569,Intentional building,2024.1.5,None,2024-11-11 08h52.05.649577 +0530,
0.4,1000,exp,0,2,2,4,10.212082699872553,,10.197180099785328,10.212082699872553,11.213799799792469,11.213799799792469,11.213799799792469,13.297335300128907,space,2.0803032000549138,None,13.298317099921405,13.712309366619836,14.02310109976679,14.008125599939376,14.008223500102758,14.02310109976679,14.02310109976679,14.02310109976679,16.417552299797535,600,1,[2.4065581997856498],[2.406573999673128],0001,001,2024-11-11_08h51.53.569,Intentional building,2024.1.5,None,2024-11-11 08h52.05.649577 +0530,
0.7,400,unexp,0,3,3,2,16.428663900122046,,16.41847309982404,16.428663900122046,17.42877670004964,17.42877670004964,17.42877670004964,19.98064379999414,space,2.547982399817556,None,19.981251999735832,20.695206966778883,21.010292700026184,20.9978045001626,20.997852500062436,21.010292700026184,21.010292700026184,21.010292700026184,24.867769999895245,100,1,[3.8676776001229882],[3.867703899741173],0001,001,2024-11-11_08h51.53.569,Intentional building,2024.1.5,None,2024-11-11 08h52.05.649577 +0530,
0.4,1000,exp,0,4,4,7,24.878704799804837,,24.868896499741822,24.878704799804837,25.87871740013361,25.87871740013361,25.87871740013361,26.38142090011388,space,0.5000275000929832,None,26.382275799755007,26.796125066528717,27.11094869999215,27.09809370012954,27.098158199805766,27.11094869999215,27.11094869999215,27.11094869999215,29.81746929977089,500,1,[2.71738320030272],[2.7173947002738714],0001,001,2024-11-11_08h51.53.569,Intentional building,2024.1.5,None,2024-11-11 08h52.05.649577 +0530,
0.4,1000,exp,0,5,5,10,29.82873660000041,,29.81807619985193,29.82873660000041,30.828780099749565,30.828780099749565,30.828780099749565,31.314801499713212,space,0.4789939997717738,None,31.315624699927866,31.728970466709384,32.04478569980711,32.028209100011736,32.02825400000438,32.04478569980711,32.04478569980711,32.04478569980711,38.146749099716544,339,1,[6.116513499990106],[6.116523299831897],0001,001,2024-11-11_08h51.53.569,Intentional building,2024.1.5,None,2024-11-11 08h52.05.649577 +0530,
0.1,1000,exp,0,6,6,6,38.162290799897164,,38.14762829989195,38.162290799897164,39.1621028999798,39.1621028999798,39.1621028999798,39.58121179975569,space,0.41445699986070395,None,39.582043199799955,39.695329866434136,40.01460159989074,39.99830750003457,39.99835669994354,40.01460159989074,40.01460159989074,40.01460159989074,42.26324799982831,700,1,[2.2628355002962053],[2.2628413001075387],0001,001,2024-11-11_08h51.53.569,Intentional building,2024.1.5,None,2024-11-11 08h52.05.649577 +0530,
0.1,1000,exp,0,7,7,9,42.278856500051916,,42.264023500029,42.278856500051916,43.27881760010496,43.27881760010496,43.27881760010496,43.897082100156695,space,0.6081909001804888,None,43.89771119970828,44.01205316657821,44.32429810008034,44.308122700080276,44.30816589994356,44.32429810008034,44.32429810008034,44.32429810008034,47.41695509990677,200,1,[3.106529800221324],[3.1065389001742005],0001,001,2024-11-11_08h51.53.569,Intentional building,2024.1.5,None,2024-11-11 08h52.05.649577 +0530,
0.4,400,unexp,0,8,8,1,47.42878369987011,,47.417757200077176,47.42878369987011,48.428788899909705,48.428788899909705,48.428788899909705,48.913843099959195,space,0.4721993999555707,None,48.914673099759966,49.32868346671263,49.639522899873555,49.627725599799305,49.62776929978281,49.639522899873555,49.639522899873555,49.639522899873555,52.613319700118154,100,1,[2.9836265998892486],[2.9836356001906097],0001,001,2024-11-11_08h51.53.569,Intentional building,2024.1.5,None,2024-11-11 08h52.05.649577 +0530,
0.1,1000,exp,0,9,9,3,52.62867929972708,,52.61411189986393,52.62867929972708,53.62889159983024,53.62889159983024,53.62889159983024,54.11364680016413,space,0.46896500000730157,None,54.11420139996335,54.228855566649386,54.53990679979324,54.52801869995892,54.52806930011138,54.53990679979324,54.53990679979324,54.53990679979324,58.31350489985198,150,1,[3.7831921000033617],[3.7832047999836504],0001,001,2024-11-11_08h51.53.569,Intentional building,2024.1.5,None,2024-11-11 08h52.05.649577 +0530,
0.7,1000,exp,0,10,10,8,58.32861419999972,,58.31461879983544,58.32861419999972,59.32896019984037,59.32896019984037,59.32896019984037,60.0133095998317,space,0.6679899003356695,None,60.013847100082785,60.72890276654313,61.043483700137585,61.02827759971842,61.02832259982824,61.043483700137585,61.043483700137585,61.043483700137585,64.4146496001631,200,1,[3.3840820002369583],[3.3841058001853526],0001,001,2024-11-11_08h51.53.569,Intentional building,2024.1.5,None,2024-11-11 08h52.05.649577 +0530,
0.1,400,unexp,0,11,11,0,64.42877409979701,,64.41564989974722,64.42877409979701,65.42878529988229,65.42878529988229,65.42878529988229,66.03123719990253,space,0.5999245997518301,None,66.03205419983715,66.14539176650966,66.45082269981503,66.43785109976307,66.4379092999734,66.45082269981503,66.45082269981503,66.45082269981503,71.13000370003283,300,1,[4.690062699839473],[4.690074200276285],0001,001,2024-11-11_08h51.53.569,Intentional building,2024.1.5,None,2024-11-11 08h52.05.649577 +0530,
0.1,1000,exp,1,0,12,9,71.14566060015932,,71.1308550001122,71.14566060015932,72.14562600012869,72.14562600012869,72.14562600012869,72.58128149993718,space,0.4279279001057148,None,72.58211079984903,72.69545226643483,73.01076279999688,72.9984615999274,72.99852370005101,73.01076279999688,73.01076279999688,73.01076279999688,75.89658290008083,500,1,[2.895964900031686],[2.8959719999693334],0001,001,2024-11-11_08h51.53.569,Intentional building,2024.1.5,None,2024-11-11 08h52.05.649577 +0530,
0.7,400,unexp,1,1,13,2,75.91219910001382,,75.89758270001039,75.91219910001382,76.91229420015588,76.91229420015588,76.91229420015588,77.21384049998596,space,0.2977551999501884,None,77.2146268999204,77.92886316642786,78.24375970009714,78.22790340008214,78.22795159975067,78.24375970009714,78.24375970009714,78.24375970009714,81.51348550012335,400,1,[3.2829799000173807],[3.2829920002259314],0001,001,2024-11-11_08h51.53.569,Intentional building,2024.1.5,None,2024-11-11 08h52.05.649577 +0530,
0.1,1000,exp,1,2,14,6,81.52858329983428,,81.51478289999068,81.52858329983428,82.5288559999317,82.5288559999317,82.5288559999317,83.86427239980549,space,1.3266957998275757,None,83.86519829975441,83.97885716666157,84.29036010010168,84.27783509995788,84.27788739977404,84.29036010010168,84.29036010010168,84.29036010010168,86.98010119982064,500,1,[2.700219999998808],[2.700229300186038],0001,001,2024-11-11_08h51.53.569,Intentional building,2024.1.5,None,2024-11-11 08h52.05.649577 +0530,
0.4,1000,exp,1,3,15,10,86.99549150001258,,86.98115349980071,86.99549150001258,87.99564319988713,87.99564319988713,87.99564319988713,89.31398560013622,space,1.3052575001493096,None,89.31480319984257,89.72886446683357,90.03959159972146,90.0278964000754,90.02794539975002,90.03959159972146,90.03959159972146,90.03959159972146,92.1973055000417,800,1,[2.16735399980098],[2.167372699826956],0001,001,2024-11-11_08h51.53.569,Intentional building,2024.1.5,None,2024-11-11 08h52.05.649577 +0530,
0.1,400,unexp,1,4,16,0,92.21224049990997,,92.19835239974782,92.21224049990997,93.21240939991549,93.21240939991549,93.21240939991549,93.99743419978768,space,0.773388700094074,None,93.9982761000283,94.11220286653067,94.4229946997948,94.40813410002738,94.40818540006876,94.4229946997948,94.4229946997948,94.4229946997948,98.07989670010284,850,1,[3.669658400118351],[3.669666899833828],0001,001,2024-11-11_08h51.53.569,Intentional building,2024.1.5,None,2024-11-11 08h52.05.649577 +0530,
0.1,1000,exp,1,5,17,3,98.09574709972367,,98.08067880012095,98.09574709972367,99.09574110014364,99.09574110014364,99.09574110014364,99.64903319999576,space,0.5377869997173548,None,99.64989709993824,99.76218256639937,100.07146049989387,100.05804809974506,100.05810069991276,100.07146049989387,100.07146049989387,100.07146049989387,102.76422070013359,700,1,[2.703789500053972],[2.703801699914038],0001,001,2024-11-11_08h51.53.569,Intentional building,2024.1.5,None,2024-11-11 08h52.05.649577 +0530,
0.7,1000,exp,1,6,18,11,102.77899170015007,,102.76500339992344,102.77899170015007,103.77900470001623,103.77900470001623,103.77900470001623,105.68053899984807,space,1.8922279002144933,None,105.68112719990313,106.3955055666777,106.6998612000607,106.68822010001168,106.68826019996777,106.6998612000607,106.6998612000607,106.6998612000607,108.59701049979776,400,1,[1.9067874001339078],[1.9067997001111507],0001,001,2024-11-11_08h51.53.569,Intentional building,2024.1.5,None,2024-11-11 08h52.05.649577 +0530,
0.7,1000,exp,1,7,19,8,108.61249099997804,,108.59805510006845,108.61249099997804,109.61239029979333,109.61239029979333,109.61239029979333,110.0811975998804,space,0.4661425002850592,None,110.08204700006172,110.79555526661376,111.10485649993643,111.09236110001802,111.09241189993918,111.10485649993643,111.10485649993643,111.10485649993643,113.63088649976999,500,1,[2.536258699838072],[2.536272599827498],0001,001,2024-11-11_08h51.53.569,Intentional building,2024.1.5,None,2024-11-11 08h52.05.649577 +0530,
0.4,1000,exp,1,8,20,4,113.64572819974273,,113.63193279970437,113.64572819974273,114.64592520007864,114.64592520007864,114.64592520007864,115.68035169970244,space,1.0175678003579378,None,115.68092009983957,116.09544726653645,116.39957050001249,116.39046819973737,116.39049419993535,116.39957050001249,116.39957050001249,116.39957050001249,118.9504618998617,300,1,[2.55831820005551],[2.5583365000784397],0001,001,2024-11-11_08h51.53.569,Intentional building,2024.1.5,None,2024-11-11 08h52.05.649577 +0530,
0.4,400,unexp,1,9,21,1,118.96240769978613,,118.95133889978752,118.96240769978613,119.96252259984612,119.96252259984612,119.96252259984612,122.11533359996974,space,2.147311099804938,None,122.1161679001525,122.52980066655824,122.83572289999574,122.8275222000666,122.8275800999254,122.83572289999574,122.83572289999574,122.83572289999574,124.91366579988971,400,1,[2.0842929002828896],[2.084303699899465],0001,001,2024-11-11_08h51.53.569,Intentional building,2024.1.5,None,2024-11-11 08h52.05.649577 +0530,
0.7,1000,exp,1,10,22,5,124.92881370009854,,124.91473879991099,124.92881370009854,125.9289357997477,125.9289357997477,125.9289357997477,126.59803969971836,space,0.6555830999277532,None,126.59885019995272,127.31232006667803,127.62099750014022,127.60798869980499,127.60805330006406,127.62099750014022,127.62099750014022,127.62099750014022,129.53093819972128,600,1,[1.9207914001308382],[1.9207999999634922],0001,001,2024-11-11_08h51.53.569,Intentional building,2024.1.5,None,2024-11-11 08h52.05.649577 +0530,
0.4,1000,exp,1,11,23,7,129.54585519991815,,129.53166319988668,129.54585519991815,130.5457310997881,130.5457310997881,130.5457310997881,131.21298119984567,space,0.6532809003256261,None,131.21329359989613,131.61303206679102,131.91726370016113,131.9031687998213,131.90319800004363,131.91726370016113,131.91726370016113,131.91726370016113,134.32997679989785,200,1,[2.4251453997567296],[2.425156899727881],0001,001,2024-11-11_08h51.53.569,Intentional building,2024.1.5,None,2024-11-11 08h52.05.649577 +0530,
0.1,1000,exp,2,0,24,9,134.3458734001033,,134.33104859991,134.3458734001033,135.3456902001053,135.3456902001053,135.3456902001053,137.19819109980017,space,1.8483703001402318,None,137.19902670010924,137.31246976653736,137.61706080008298,137.6064737997949,137.60650839982554,137.61706080008298,137.61706080008298,137.61706080008298,140.49773469986394,400,1,[2.8895757999271154],[2.889589900150895],0001,001,2024-11-11_08h51.53.569,Intentional building,2024.1.5,None,2024-11-11 08h52.05.649577 +0530,
0.7,1000,exp,2,1,25,8,140.51229490013793,,140.4987701997161,140.51229490013793,141.51255440013483,141.51255440013483,141.51255440013483,141.9308055001311,space,0.4020072999410331,None,141.93175730016083,142.64565896668162,142.96124840015545,142.94816519971937,142.94821160007268,142.96124840015545,142.96124840015545,142.96124840015545,145.38082189997658,500,1,[2.4304961999878287],[2.430507400073111],0001,001,2024-11-11_08h51.53.569,Intentional building,2024.1.5,None,2024-11-11 08h52.05.649577 +0530,
0.4,1000,exp,2,2,26,4,145.39573290012777,,145.3818827001378,145.39573290012777,146.39588580001146,146.39588580001146,146.39588580001146,147.59789149975404,space,1.1848945003002882,None,147.59876090008765,148.01238616655272,148.32501070015132,148.30993269989267,148.309983599931,148.32501070015132,148.32501070015132,148.32501070015132,150.14699509972706,200,1,[1.8349079000763595],[1.8349209004081786],0001,001,2024-11-11_08h51.53.569,Intentional building,2024.1.5,None,2024-11-11 08h52.05.649577 +0530,
0.7,1000,exp,2,3,27,11,150.16247900016606,,150.14825769979507,150.16247900016606,151.16251270007342,151.16251270007342,151.16251270007342,152.0305901998654,space,0.8562225000932813,None,152.03137659979984,152.74550786667194,153.05151529982686,153.03822219977155,153.0382670997642,153.05151529982686,153.05151529982686,153.05151529982686,155.74689309997484,300,1,[2.7065933002159],[2.7066007000394166],0001,001,2024-11-11_08h51.53.569,Intentional building,2024.1.5,None,2024-11-11 08h52.05.649577 +0530,
0.1,400,unexp,2,4,28,0,155.76240709982812,,155.74770659999922,155.76240709982812,156.76228970009834,156.76228970009834,156.76228970009834,157.2808341998607,space,0.5126435998827219,None,157.28153740009293,157.39574356662732,157.70016269991174,157.68840279988945,157.6884491997771,157.70016269991174,157.70016269991174,157.70016269991174,159.83408519998193,100,1,[2.143528699874878],[2.143536599818617],0001,001,2024-11-11_08h51.53.569,Intentional building,2024.1.5,None,2024-11-11 08h52.05.649577 +0530,
0.4,1000,exp,2,5,29,7,159.84585699997842,,159.83481339970604,159.84585699997842,160.84582199994475,160.84582199994475,160.84582199994475,162.1306646997109,space,1.2795751001685858,None,162.13152329996228,162.5456245667922,162.86066849995404,162.84799679974094,162.84805449983105,162.86066849995404,162.86066849995404,162.86066849995404,164.86681170016527,300,1,[2.0163239003159106],[2.016335400287062],0001,001,2024-11-11_08h51.53.569,Intentional building,2024.1.5,None,2024-11-11 08h52.05.649577 +0530,
0.4,400,unexp,2,6,30,1,164.87905689980835,,164.86730369972065,164.87905689980835,165.87905150000006,165.87905150000006,165.87905150000006,166.59877829998732,space,0.7163923000916839,None,166.59959209989756,167.01239306672167,167.3212363999337,167.3081352999434,167.3081744001247,167.3212363999337,167.3212363999337,167.3212363999337,171.0466963001527,200,1,[3.7368267998099327],[3.736831999849528],0001,001,2024-11-11_08h51.53.569,Intentional building,2024.1.5,None,2024-11-11 08h52.05.649577 +0530,
0.1,1000,exp,2,7,31,6,171.06251089973375,,171.04732469981536,171.06251089973375,172.0623991000466,172.0623991000466,172.0623991000466,173.16400199988857,space,1.0856755003333092,None,173.1648069997318,173.2792577664989,173.5951795000583,173.57781779998913,173.57786149997264,173.5951795000583,173.5951795000583,173.5951795000583,176.88066159980372,600,1,[3.300270900130272],[3.300286800134927],0001,001,2024-11-11_08h51.53.569,Intentional building,2024.1.5,None,2024-11-11 08h52.05.649577 +0530,
0.7,1000,exp,2,8,32,5,176.89590799994767,,176.8818286000751,176.89590799994767,177.89587000012398,177.89587000012398,177.89587000012398,178.64853599993512,space,0.7449115999042988,None,178.64935149997473,179.3625399666528,179.6713493997231,179.65792099991813,179.65796920005232,179.6713493997231,179.6713493997231,179.6713493997231,182.1132482998073,550,1,[2.453380999621004],[2.4533891999162734],0001,001,2024-11-11_08h51.53.569,Intentional building,2024.1.5,None,2024-11-11 08h52.05.649577 +0530,
0.7,400,unexp,2,9,33,2,182.1287702997215,,182.1138732000254,182.1287702997215,183.1289324001409,183.1289324001409,183.1289324001409,183.99758209986612,space,0.857158400118351,None,183.998389699962,184.7125462666775,185.0194938001223,185.00792569993064,185.0079748998396,185.0194938001223,185.0194938001223,185.0194938001223,187.9303051000461,300,1,[2.9204977001063526],[2.9205056000500917],0001,001,2024-11-11_08h51.53.569,Intentional building,2024.1.5,None,2024-11-11 08h52.05.649577 +0530,
0.1,1000,exp,2,10,34,3,187.94584750011563,,187.93108760006726,187.94584750011563,188.94595569977537,188.94595569977537,188.94595569977537,189.63087079999968,space,0.6734088999219239,None,189.6317241000943,189.74572146643575,190.05670769978315,190.04157170001417,190.04162169992924,190.05670769978315,190.05670769978315,190.05670769978315,193.21721930010244,400,1,[3.1734939999878407],[3.173505099955946],0001,001,2024-11-11_08h51.53.569,Intentional building,2024.1.5,None,2024-11-11 08h52.05.649577 +0530,
0.4,1000,exp,2,11,35,10,193.22901300014928,,193.2182458001189,193.22901300014928,194.22923959977925,194.22923959977925,194.22923959977925,195.01414689980447,space,0.7699715001508594,None,195.01494670007378,195.42931106646236,195.7403464000672,195.72807249985635,195.72812670003623,195.7403464000672,195.7403464000672,195.7403464000672,200.19714620010927,500,1,[4.4667992000468075],[4.4668097998946905],0001,001,2024-11-11_08h51.53.569,Intentional building,2024.1.5,None,2024-11-11 08h52.05.649577 +0530,
0.4,400,unexp,3,0,36,1,200.2126242001541,,200.19828719971702,200.2126242001541,201.2124804998748,201.2124804998748,201.2124804998748,202.26441460009664,space,1.0365608995780349,None,202.26523499982432,202.6792529663692,202.99361580004916,202.97808860009536,202.97817629994825,202.99361580004916,202.99361580004916,202.99361580004916,206.73076479975134,450,1,[3.7503851000219584],[3.7503951000981033],0001,001,2024-11-11_08h51.53.569,Intentional building,2024.1.5,None,2024-11-11 08h52.05.649577 +0530,
0.4,1000,exp,3,1,37,7,206.7456284998916,,206.73181399982423,206.7456284998916,207.74588369997218,207.74588369997218,207.74588369997218,208.265432999935,space,0.5169286001473665,None,208.26629310008138,208.67913146649178,208.99337809998542,208.9778400999494,208.97789660003036,208.99337809998542,208.99337809998542,208.99337809998542,212.8497347999364,600,1,[3.8695910000242293],[3.8695988999679685],0001,001,2024-11-11_08h51.53.569,Intentional building,2024.1.5,None,2024-11-11 08h52.05.649577 +0530,
0.4,1000,exp,3,2,38,4,212.8626179001294,,212.85060139978305,212.8626179001294,213.86266579991207,213.86266579991207,213.86266579991207,215.19762449990958,space,1.322712799999863,None,215.19850090006366,215.6123717665362,215.9204313000664,215.9082391001284,215.90828729979694,215.9204313000664,215.9204313000664,215.9204313000664,219.67977869976312,700,1,[3.7695420999079943],[3.7695509996265173],0001,001,2024-11-11_08h51.53.569,Intentional building,2024.1.5,None,2024-11-11 08h52.05.649577 +0530,
0.7,400,unexp,3,3,39,2,219.69576210016385,,219.6805742997676,219.69576210016385,220.6961459000595,220.6961459000595,220.6961459000595,221.33090079994872,space,0.6320674996823072,None,221.3319010999985,222.04576976650085,222.36102279974148,222.34834349993616,222.34839109983295,222.36102279974148,222.36102279974148,222.36102279974148,224.83054520003498,550,1,[2.480163900181651],[2.4801715998910367],0001,001,2024-11-11_08h51.53.569,Intentional building,2024.1.5,None,2024-11-11 08h52.05.649577 +0530,
0.1,1000,exp,3,4,40,3,224.8459602999501,,224.83140389993787,224.8459602999501,225.84584910003468,225.84584910003468,225.84584910003468,228.0476230001077,space,2.192827300168574,None,228.04842340014875,228.16240706673514,228.47123509971425,228.4582112999633,228.45825489982963,228.47123509971425,228.47123509971425,228.47123509971425,233.93033389979973,600,1,[5.4699432998895645],[5.469952799845487],0001,001,2024-11-11_08h51.53.569,Intentional building,2024.1.5,None,2024-11-11 08h52.05.649577 +0530,
0.7,1000,exp,3,5,41,11,233.9459271999076,,233.93145560007542,233.9459271999076,234.94588949996978,234.94588949996978,234.94588949996978,235.54748019995168,space,0.5846898001618683,None,235.54814499989152,236.26259796653565,236.56908289995044,236.55779539979994,236.5578430998139,236.56908289995044,236.56908289995044,236.56908289995044,239.94739869982004,650,1,[3.3874022997915745],[3.3874198999255896],0001,001,2024-11-11_08h51.53.569,Intentional building,2024.1.5,None,2024-11-11 08h52.05.649577 +0530,
0.1,400,unexp,3,6,42,0,239.96240329975262,,239.9489596998319,239.96240329975262,240.9626659997739,240.9626659997739,240.9626659997739,241.6478762999177,space,0.6687866002321243,None,241.64926060009748,241.762467166471,242.06993319978938,242.0578356999904,242.0578839997761,242.06993319978938,242.06993319978938,242.06993319978938,248.24802529998124,540,1,[6.188189700245857],[6.188203200232238],0001,001,2024-11-11_08h51.53.569,Intentional building,2024.1.5,None,2024-11-11 08h52.05.649577 +0530,
0.7,1000,exp,3,7,43,5,248.26274959975854,,248.24860069993883,248.26274959975854,249.26274499995634,249.26274499995634,249.26274499995634,249.88192480010912,space,0.6160590997897089,None,249.88290769979358,250.59582766663905,250.9001599000767,250.8878039000556,250.88784850016236,250.9001599000767,250.9001599000767,250.9001599000767,254.84761029994115,600,1,[3.9575482001528144],[3.9575688000768423],0001,001,2024-11-11_08h51.53.569,Intentional building,2024.1.5,None,2024-11-11 08h52.05.649577 +0530,
0.1,1000,exp,3,8,44,9,254.8627774999477,,254.8486790000461,254.8627774999477,255.86246850015596,255.86246850015596,255.86246850015596,256.2318518999964,space,0.3621972999535501,None,256.23273609997705,256.3456841665941,256.6600926001556,256.64795000012964,256.64799829991534,256.6600926001556,256.6600926001556,256.6600926001556,262.013805499766,670,1,[5.363699899986386],[5.363708899822086],0001,001,2024-11-11_08h51.53.569,Intentional building,2024.1.5,None,2024-11-11 08h52.05.649577 +0530,
0.1,1000,exp,3,9,45,6,262.0293193999678,,262.0148991998285,262.0293193999678,263.0292332000099,263.0292332000099,263.0292332000099,263.43076130002737,space,0.38417960004881024,None,263.43173869978637,263.5459297667878,263.8603834998794,263.8483373997733,263.848387400154,263.8603834998794,263.8603834998794,263.8603834998794,269.49679289991036,400,1,[5.646436399780214],[5.646443699952215],0001,001,2024-11-11_08h51.53.569,Intentional building,2024.1.5,None,2024-11-11 08h52.05.649577 +0530,
0.7,1000,exp,3,10,46,8,269.5125251999125,,269.4976097997278,269.5125251999125,270.51245060004294,270.51245060004294,270.51245060004294,270.86528309993446,space,0.34688760014250875,None,270.8661361001432,271.57923416659855,271.8897858001292,271.87767269974574,271.87772580003366,271.8897858001292,271.8897858001292,271.8897858001292,276.0803421000019,300,1,[4.200547400396317],[4.200555300340056],0001,001,2024-11-11_08h51.53.569,Intentional building,2024.1.5,None,2024-11-11 08h52.05.649577 +0530,
0.4,1000,exp,3,11,47,10,276.0961376000196,,276.0813576001674,276.0961376000196,277.0960349999368,277.0960349999368,277.0960349999368,277.7668868000619,space,0.6532577998004854,None,277.7677394999191,278.17944796668985,278.4904621997848,278.47804949991405,278.4781033000909,278.4904621997848,278.4904621997848,278.4904621997848,281.1834045997821,600,1,[2.703075600322336],[2.703087200410664],0001,001,2024-11-11_08h51.53.569,Intentional building,2024.1.5,None,2024-11-11 08h52.05.649577 +0530,
0.7,1000,exp,4,0,48,11,281.19602399971336,,281.18444059975445,281.19602399971336,282.19600389990956,282.19600389990956,282.19600389990956,282.84798029996455,space,0.6404905999079347,None,282.8492939998396,283.56249186682203,283.8699314999394,283.8589154998772,283.8589606997557,283.8699314999394,283.8699314999394,283.8699314999394,286.06755020003766,500,1,[2.206448100041598],[2.2064593001268804],0001,001,2024-11-11_08h51.53.569,Intentional building,2024.1.5,None,2024-11-11 08h52.05.649577 +0530,
0.4,1000,exp,4,1,49,4,286.07916129985824,,286.0685672997497,286.07916129985824,287.079351299908,287.079351299908,287.079351299908,287.13166659977287,space,0.04351889993995428,None,287.1325403000228,287.54589776654416,287.86028439970687,287.8480190001428,287.84806639980525,287.86028439970687,287.86028439970687,287.86028439970687,290.66343639977276,600,1,[2.8134520002640784],[2.813462099991739],0001,001,2024-11-11_08h51.53.569,Intentional building,2024.1.5,None,2024-11-11 08h52.05.649577 +0530,
0.1,1000,exp,4,2,50,9,290.6789673999883,,290.6640697000548,290.6789673999883,291.6791159999557,291.6791159999557,291.6791159999557,293.364563500043,space,1.682382700033486,None,293.3653730000369,293.4791817665721,293.7795238001272,293.7703399998136,293.77038249978796,293.7795238001272,293.7795238001272,293.7795238001272,296.88046030001715,340,1,[3.1083312002010643],[3.108343600295484],0001,001,2024-11-11_08h51.53.569,Intentional building,2024.1.5,None,2024-11-11 08h52.05.649577 +0530,
0.4,1000,exp,4,3,51,10,296.8958292999305,,296.8812413001433,296.8958292999305,297.89585619978607,297.89585619978607,297.89585619978607,299.4806152000092,space,1.5690703000873327,None,299.48124289978296,299.89575966640064,300.21015729987994,300.1983381998725,300.1983858998865,300.21015729987994,300.21015729987994,300.21015729987994,303.1637602997944,600,1,[2.9634955003857613],[2.9635024000890553],0001,001,2024-11-11_08h51.53.569,Intentional building,2024.1.5,None,2024-11-11 08h52.05.649577 +0530,
0.1,400,unexp,4,4,52,0,303.1793279997073,,303.16447439976037,303.1793279997073,304.17933209985495,304.17933209985495,304.17933209985495,307.18104900000617,space,2.9892416996881366,None,307.181898499839,307.2959092665153,307.61167669994757,307.5981858000159,307.5982512999326,307.61167669994757,307.61167669994757,307.61167669994757,310.7638853001408,200,1,[3.163429500069469],[3.1634406996890903],0001,001,2024-11-11_08h51.53.569,Intentional building,2024.1.5,None,2024-11-11 08h52.05.649577 +0530,
0.7,400,unexp,4,5,53,2,310.77942050015554,,310.76454389980063,310.77942050015554,311.779390799813,311.779390799813,311.779390799813,317.4307634998113,space,5.634059800300747,None,317.4317215997726,318.1460071667718,318.46137009980157,318.44829990016297,318.44835369987413,318.46137009980157,318.46137009980157,318.46137009980157,323.01390230003744,400,1,[4.563299799803644],[4.563313500024378],0001,001,2024-11-11_08h51.53.569,Intentional building,2024.1.5,None,2024-11-11 08h52.05.649577 +0530,
0.1,1000,exp,4,6,54,3,323.0294393999502,,323.01494550006464,323.0294393999502,324.0292690000497,324.0292690000497,324.0292690000497,325.0649925000034,space,1.0316918999888003,None,325.06566399987787,325.17942876654365,325.49280049977824,325.4780751997605,325.4781337999739,325.49280049977824,325.49280049977824,325.49280049977824,330.84782609995455,500,1,[5.367063200101256],[5.367073200177401],0001,001,2024-11-11_08h51.53.569,Intentional building,2024.1.5,None,2024-11-11 08h52.05.649577 +0530,
0.4,1000,exp,4,7,55,7,330.86268749972805,,330.84914349997416,330.86268749972805,331.8627627999522,331.8627627999522,331.8627627999522,333.86547149997205,space,1.9997354000806808,None,333.86630049999803,334.2794309664207,334.59026930015534,334.57771250000224,334.57775820000097,334.59026930015534,334.59026930015534,334.59026930015534,337.7472990998067,600,1,[3.167261299677193],[3.1672739000059664],0001,001,2024-11-11_08h51.53.569,Intentional building,2024.1.5,None,2024-11-11 08h52.05.649577 +0530,
0.1,1000,exp,4,8,56,6,337.7628544000909,,337.7485210997984,337.7628544000909,338.7627602000721,338.7627602000721,338.7627602000721,339.0987709001638,space,0.3299067998304963,None,339.0995538998395,339.21263106639185,339.52345630014315,339.50810279976577,339.5081520997919,339.52345630014315,339.52345630014315,339.52345630014315,342.4807241000235,400,1,[2.970327999908477],[2.9703803001902997],0001,001,2024-11-11_08h51.53.569,Intentional building,2024.1.5,None,2024-11-11 08h52.05.649577 +0530,
0.7,1000,exp,4,9,57,5,342.49600180005655,,342.4816626999527,342.49600180005655,343.49627699982375,343.49627699982375,343.49627699982375,345.31519619980827,space,1.8141426001675427,None,345.31594360014424,346.0295308665993,346.3415636001155,346.3279828000814,346.32804309995845,346.3415636001155,346.3415636001155,346.3415636001155,349.0976129998453,500,1,[2.767371800262481],[2.7673822003416717],0001,001,2024-11-11_08h51.53.569,Intentional building,2024.1.5,None,2024-11-11 08h52.05.649577 +0530,
0.4,400,unexp,4,10,58,1,349.11267329985276,,349.09846149990335,349.11267329985276,350.11279049981385,350.11279049981385,350.11279049981385,352.0311646000482,space,1.909863700158894,None,352.0319885001518,352.4461131664614,352.76035169977695,352.74806360015646,352.7481221999042,352.76035169977695,352.76035169977695,352.76035169977695,359.19725230010226,600,1,[6.447192299645394],[6.447201099712402],0001,001,2024-11-11_08h51.53.569,Intentional building,2024.1.5,None,2024-11-11 08h52.05.649577 +0530,
0.7,1000,exp,4,11,59,8,359.21258309995756,,359.1981834000908,359.21258309995756,360.2126851999201,360.2126851999201,360.2126851999201,360.8484832998365,space,0.6332482001744211,None,360.84943709988147,361.56262836658084,361.86965540004894,361.85800130013376,361.85805269982666,361.86965540004894,361.86965540004894,361.86965540004894,365.81416049972177,950,1,[3.9538947003893554],[3.9539052001200616],0001,001,2024-11-11_08h51.53.569,Intentional building,2024.1.5,None,2024-11-11 08h52.05.649577 +0530,
0.7,1000,exp,5,0,60,5,365.82945480011404,,365.81488250009716,365.82945480011404,366.82937330007553,366.82937330007553,366.82937330007553,369.18114560004324,space,2.3401224999688566,None,369.1819540001452,369.896058366696,370.2093760999851,370.19827709998935,370.1983170998283,370.2093760999851,370.2093760999851,370.2093760999851,373.4997470998205,600,1,[3.299531300086528],[3.2995385001413524],0001,001,2024-11-11_08h51.53.569,Intentional building,2024.1.5,None,2024-11-11 08h52.05.649577 +0530,
0.4,1000,exp,5,1,61,10,373.5127749000676,,373.50050769979134,373.5127749000676,374.5129876998253,374.5129876998253,374.5129876998253,379.8311263998039,space,5.311804799828678,None,379.831952100154,380.24608136673146,380.5598220000975,380.5478487997316,380.5478968000971,380.5598220000975,380.5598220000975,380.5598220000975,386.047212400008,650,1,[5.497187499888241],[5.497194999828935],0001,001,2024-11-11_08h51.53.569,Intentional building,2024.1.5,None,2024-11-11 08h52.05.649577 +0530,
0.4,1000,exp,5,2,62,7,386.06277639977634,,386.0480353999883,386.06277639977634,387.06289179995656,387.06289179995656,387.06289179995656,387.5473007000983,space,0.47335619991645217,None,387.5479449001141,387.9628048665511,388.2711885999888,388.257755599916,388.25782259972766,388.2711885999888,388.2711885999888,388.2711885999888,391.84733580006287,550,1,[3.5874804998748004],[3.58749289996922],0001,001,2024-11-11_08h51.53.569,Intentional building,2024.1.5,None,2024-11-11 08h52.05.649577 +0530,
0.1,1000,exp,5,3,63,9,391.86291569983587,,391.84834659984335,391.86291569983587,392.8630081000738,392.8630081000738,392.8630081000738,393.54909300012514,space,0.6800458002835512,None,393.549818799831,393.6626808667245,393.96995810000226,393.9576551998034,393.957709599752,393.96995810000226,393.96995810000226,393.96995810000226,397.130238099955,600,1,[3.1705750999972224],[3.170584799721837],0001,001,2024-11-11_08h51.53.569,Intentional building,2024.1.5,None,2024-11-11 08h52.05.649577 +0530,
0.4,400,unexp,5,4,64,1,397.1460472997278,,397.1308737997897,397.1460472997278,398.146319499705,398.146319499705,398.146319499705,398.9639722998254,space,0.8042190000414848,None,398.96484819985926,399.3795408667686,399.6926583000459,399.6776099000126,399.67765269987285,399.6926583000459,399.6926583000459,399.6926583000459,402.71386440005153,750,1,[3.0335050001740456],[3.033511199988425],0001,001,2024-11-11_08h51.53.569,Intentional building,2024.1.5,None,2024-11-11 08h52.05.649577 +0530,
0.7,1000,exp,5,5,65,11,402.72936559980735,,402.7146215001121,402.72936559980735,403.7296438999474,403.7296438999474,403.7296438999474,405.1648260001093,space,1.4207464000210166,None,405.1655848999508,405.8794564665916,406.18719159998,406.1776124997996,406.1776537001133,406.18719159998,406.18719159998,406.18719159998,408.81467719981447,600,1,[2.6351671000011265],[2.635177000425756],0001,001,2024-11-11_08h51.53.569,Intentional building,2024.1.5,None,2024-11-11 08h52.05.649577 +0530,
0.1,1000,exp,5,6,66,3,408.82963939988986,,408.81572949979454,408.82963939988986,409.82978929998353,409.82978929998353,409.82978929998353,412.48113239975646,space,2.6458467999473214,None,412.4819402997382,412.59606616670885,412.91068339999765,412.89801249979064,412.89806050015613,412.91068339999765,412.91068339999765,412.91068339999765,418.18116849986836,650,1,[5.280829099938273],[5.28084409981966],0001,001,2024-11-11_08h51.53.569,Intentional building,2024.1.5,None,2024-11-11 08h52.05.649577 +0530,
0.1,1000,exp,5,7,67,6,418.19606010010466,,418.18279880005866,418.19606010010466,419.19614470005035,419.19614470005035,419.19614470005035,420.63255929993466,space,1.4316908000037074,None,420.63345579989254,420.74618156679594,421.0591815998778,421.0478662000969,421.04790609981865,421.0591815998778,421.0591815998778,421.0591815998778,424.2340812999755,700,1,[3.1839821999892592],[3.183994499966502],0001,001,2024-11-11_08h51.53.569,Intentional building,2024.1.5,None,2024-11-11 08h52.05.649577 +0530,
0.7,400,unexp,5,8,68,2,424.246212199796,,424.235118099954,424.246212199796,425.24636820005253,425.24636820005253,425.24636820005253,425.3315258999355,space,0.07842089980840683,None,425.33232259983197,426.046291966519,426.3603968000971,426.3477878998965,426.3478353000246,426.3603968000971,426.3603968000971,426.3603968000971,430.11407339992,440,1,[3.764234700240195],[3.7642431003041565],0001,001,2024-11-11_08h51.53.569,Intentional building,2024.1.5,None,2024-11-11 08h52.05.649577 +0530,
0.4,1000,exp,5,9,69,4,430.12961499998346,,430.1151151997037,430.12961499998346,431.1294339001179,431.1294339001179,431.1294339001179,431.8812560001388,space,0.7426470001228154,None,431.88206329988316,432.29609726654985,432.60994189977646,432.5979864001274,432.5980341997929,432.60994189977646,432.60994189977646,432.60994189977646,436.33020350011066,650,1,[3.730236199684441],[3.730244899634272],0001,001,2024-11-11_08h51.53.569,Intentional building,2024.1.5,None,2024-11-11 08h52.05.649577 +0530,
0.1,400,unexp,5,10,70,0,436.34606309980154,,436.3308370001614,436.34606309980154,437.3295577997342,437.3295577997342,437.3464089999907,441.3147191000171,space,3.96746619977057,None,441.3155849999748,441.42958966648825,441.7404156001285,441.72765279980376,441.72769510000944,441.7404156001285,441.7404156001285,441.7404156001285,445.71462129987776,550,1,[3.9849125002510846],[3.984919300302863],0001,001,2024-11-11_08h51.53.569,Intentional building,2024.1.5,None,2024-11-11 08h52.05.649577 +0530,
0.7,1000,exp,5,11,71,8,445.72969010006636,,445.7153313001618,445.72969010006636,446.7296492001042,446.7296492001042,446.7296492001042,450.514727700036,space,3.7697582002729177,None,450.51552899973467,451.229701566572,451.5411519999616,451.52769699972123,451.5277446000837,451.5411519999616,451.5411519999616,451.5411519999616,455.3806847999804,400,1,[3.8506297999992967],[3.8506373004056513],0001,001,2024-11-11_08h51.53.569,Intentional building,2024.1.5,None,2024-11-11 08h52.05.649577 +0530,
0.4,1000,exp,6,0,72,7,455.3962821997702,,455.38134869979694,455.3962821997702,456.3963279998861,456.3963279998861,456.3963279998861,458.3654525997117,space,1.9616260002367198,None,458.36627459991723,458.77947866643467,459.0893600997515,459.07783850003034,459.07788300001994,459.0893600997515,459.0893600997515,459.0893600997515,462.4474440999329,500,1,[3.367308999877423],[3.3673164998181164],0001,001,2024-11-11_08h51.53.569,Intentional building,2024.1.5,None,2024-11-11 08h52.05.649577 +0530,
0.4,1000,exp,6,1,73,10,462.46305759996176,,462.4482339997776,462.46305759996176,463.463029100094,463.463029100094,463.463029100094,468.86505390005186,space,5.38613160001114,None,468.86586270015687,469.279683766483,469.59067559987307,469.57781489985064,469.5778641998768,469.59067559987307,469.59067559987307,469.59067559987307,472.19768559979275,600,1,[2.617368799634278],[2.617382399737835],0001,001,2024-11-11_08h51.53.569,Intentional building,2024.1.5,None,2024-11-11 08h52.05.649577 +0530,
0.1,400,unexp,6,2,74,0,472.212856200058,,472.1988586001098,472.212856200058,473.2128384998068,473.2128384998068,473.2128384998068,473.83142339996994,space,0.6079327999614179,None,473.8322732998058,473.9461314664843,474.2569881998934,474.2422536998056,474.242300900165,474.2569881998934,474.2569881998934,474.2569881998934,476.83090349985287,700,1,[2.5864464002661407],[2.586455900222063],0001,001,2024-11-11_08h51.53.569,Intentional building,2024.1.5,None,2024-11-11 08h52.05.649577 +0530,
0.4,1000,exp,6,3,75,4,476.84642549976707,,476.83180439984426,476.84642549976707,477.84649899974465,477.84649899974465,477.84649899974465,478.2823489001021,space,0.43358949990943074,None,478.28315360005945,478.69606206665435,479.00915199983865,478.9974559000693,478.9974977001548,479.00915199983865,479.00915199983865,479.00915199983865,482.54694599984214,500,1,[3.5477224001660943],[3.5477299001067877],0001,001,2024-11-11_08h51.53.569,Intentional building,2024.1.5,None,2024-11-11 08h52.05.649577 +0530,
0.1,1000,exp,6,4,76,6,482.5628752997145,,482.54768879991025,482.5628752997145,483.5630330001004,483.5630330001004,483.5630330001004,484.66562499990687,space,1.095083300024271,None,484.66642710007727,484.7797650667528,485.0901955999434,485.0780545999296,485.07810459984466,485.0901955999434,485.0901955999434,485.0901955999434,487.81440229993314,600,1,[2.733948000241071],[2.7339599998667836],0001,001,2024-11-11_08h51.53.569,Intentional building,2024.1.5,None,2024-11-11 08h52.05.649577 +0530,
0.7,400,unexp,6,5,77,2,487.82977729989216,,487.8157057999633,487.82977729989216,488.82971710013226,488.82971710013226,488.82971710013226,489.9982332997024,space,1.1546930000185966,None,489.9991593998857,490.7130575664962,491.0200919001363,491.00806639995426,491.00811469973996,491.0200919001363,491.0200919001363,491.0200919001363,493.0144186997786,500,1,[2.0044133001938462],[2.0044218003749847],0001,001,2024-11-11_08h51.53.569,Intentional building,2024.1.5,None,2024-11-11 08h52.05.649577 +0530,
0.7,1000,exp,6,6,78,11,493.02937019988894,,493.0150325000286,493.02937019988894,494.0297694997862,494.0297694997862,494.0297694997862,494.41441950015724,space,0.3677111999131739,None,494.4152970998548,495.1296987664575,495.44353439984843,495.4276692001149,495.4277256997302,495.44353439984843,495.44353439984843,495.44353439984843,500.7807970000431,700,1,[5.3505651000887156],[5.35057060001418],0001,001,2024-11-11_08h51.53.569,Intentional building,2024.1.5,None,2024-11-11 08h52.05.649577 +0530,
0.7,1000,exp,6,7,79,8,500.79655720014125,,500.7813677000813,500.79655720014125,501.79638399975374,501.79638399975374,501.79638399975374,502.5316697997041,space,0.7317527001723647,None,502.5323835997842,503.24614006659635,503.5594231998548,503.5475457999855,503.54759169975296,503.5594231998548,503.5594231998548,503.5594231998548,506.78057410009205,700,1,[3.231180100236088],[3.231186500284821],0001,001,2024-11-11_08h51.53.569,Intentional building,2024.1.5,None,2024-11-11 08h52.05.649577 +0530,
0.4,400,unexp,6,8,80,1,506.79632299998775,,506.7812344999984,506.79632299998775,507.7964666998014,507.7964666998014,507.7964666998014,508.43123839981854,space,0.6246163002215326,None,508.43203460006043,508.84626816638433,509.15069499984384,509.13742090016603,509.13746660016477,509.15069499984384,509.15069499984384,509.15069499984384,513.6802821001038,590,1,[4.540982000064105],[4.540987700223923],0001,001,2024-11-11_08h51.53.569,Intentional building,2024.1.5,None,2024-11-11 08h52.05.649577 +0530,
0.1,1000,exp,6,9,81,3,513.6961515997536,,513.6809744997881,513.6961515997536,514.6797923999839,514.6797923999839,514.6963607999496,517.3489199997857,space,2.6648522997274995,None,517.3496648999862,517.4629847664075,517.7789273997769,517.7578254998662,517.7578749000095,517.7789273997769,517.7789273997769,517.7789273997769,520.381982000079,700,1,[2.6216521998867393],[2.621661899611354],0001,001,2024-11-11_08h51.53.569,Intentional building,2024.1.5,None,2024-11-11 08h52.05.649577 +0530,
0.1,1000,exp,6,10,82,9,520.3963244999759,,520.3829533001408,520.3963244999759,521.3965869997628,521.3965869997628,521.3965869997628,521.5649794000201,space,0.16127829998731613,None,521.5657060998492,521.6795574664759,521.9928306001239,521.977318499703,521.9773673000745,521.9928306001239,521.9928306001239,521.9928306001239,524.4140733000822,600,1,[2.434679899830371],[2.4346896996721625],0001,001,2024-11-11_08h51.53.569,Intentional building,2024.1.5,None,2024-11-11 08h52.05.649577 +0530,
0.7,1000,exp,6,11,83,5,524.4294921001419,,524.4148854999803,524.4294921001419,525.4305941998027,525.4305941998027,525.4305941998027,526.8207418001257,space,1.3737864000722766,None,526.8214515997097,527.5349675664368,527.848562200088,527.8349508997053,527.8349772999063,527.848562200088,527.848562200088,527.848562200088,530.3309025997296,600,1,[2.4941353001631796],[2.4941422999836504],0001,001,2024-11-11_08h51.53.569,Intentional building,2024.1.5,None,2024-11-11 08h52.05.649577 +0530,
0.7,1000,exp,7,0,84,11,530.3465022998862,,530.3318749000318,530.3465022998862,531.3465062999167,531.3465062999167,531.3465062999167,531.9992786999792,space,0.6451685000211,None,532.0000094999559,532.7132703667196,533.0257763001136,533.0074347998016,533.007473200094,533.0257763001136,533.0257763001136,533.0257763001136,534.4642795999534,300,1,[1.4548879000358284],[1.4549019001424313],0001,001,2024-11-11_08h51.53.569,Intentional building,2024.1.5,None,2024-11-11 08h52.05.649577 +0530,
0.4,1000,exp,7,1,85,10,534.4797994997352,,534.4648879999295,534.4797994997352,535.4797295997851,535.4797295997851,535.4797295997851,535.7807565997355,space,0.28434820007532835,None,535.7811648999341,536.1963813664081,536.5096994000487,536.4975308999419,536.4975939998403,536.5096994000487,536.5096994000487,536.5096994000487,538.5308469999582,600,1,[2.0306437998078763],[2.0306510999798775],0001,001,2024-11-11_08h51.53.569,Intentional building,2024.1.5,None,2024-11-11 08h52.05.649577 +0530,
0.7,1000,exp,7,2,86,8,538.5462353001349,,538.5316339000128,538.5462353001349,539.5464642997831,539.5464642997831,539.5464642997831,541.2818816001527,space,1.7330062999390066,None,541.2833070000634,541.9963546666006,542.3006667001173,542.2874010000378,542.2874583997764,542.3006667001173,542.3006667001173,542.3006667001173,543.7301401998848,500,1,[1.4409713000059128],[1.4409767999313772],0001,001,2024-11-11_08h51.53.569,Intentional building,2024.1.5,None,2024-11-11 08h52.05.649577 +0530,
0.4,1000,exp,7,3,87,7,543.7461616001092,,543.7307735001668,543.7461616001092,544.729820900131,544.729820900131,544.7464008997194,546.7149275001138,space,1.9705125000327826,None,546.7157907998189,547.1296911663997,547.438867200166,547.4273465001024,547.427401300054,547.438867200166,547.438867200166,547.438867200166,549.5472663999535,700,1,[2.117352000437677],[2.11735920002684],0001,001,2024-11-11_08h51.53.569,Intentional building,2024.1.5,None,2024-11-11 08h52.05.649577 +0530,
0.1,400,unexp,7,4,88,0,549.5628745998256,,549.5480736000463,549.5628745998256,550.5630467999727,550.5630467999727,550.5630467999727,551.3816335997544,space,0.8089165999554098,None,551.3824529997073,551.4965600665348,551.8085225997493,551.7973281997256,551.7973688999191,551.8085225997493,551.8085225997493,551.8085225997493,556.4812181000598,120,1,[4.68123700004071],[4.681251600384712],0001,001,2024-11-11_08h51.53.569,Intentional building,2024.1.5,None,2024-11-11 08h52.05.649577 +0530,
0.7,400,unexp,7,5,89,2,556.4964049998671,,556.4823571997695,556.4964049998671,557.4966385001317,557.4966385001317,557.4966385001317,562.2314053997397,space,4.731283400207758,None,562.2322166999802,562.9463297664809,563.2630659998395,563.2477003000677,563.2477567000315,563.2630659998395,563.2630659998395,563.2630659998395,565.3019248000346,400,1,[2.0520905000157654],[2.0520990998484194],0001,001,2024-11-11_08h51.53.569,Intentional building,2024.1.5,None,2024-11-11 08h52.05.649577 +0530,
0.4,1000,exp,7,6,90,4,565.3130700998008,,565.3026342000812,565.3130700998008,566.3132895999588,566.3132895999588,566.3132895999588,568.8648593998514,space,2.5385642000474036,None,568.8657903000712,569.2795743668141,569.5897634001449,569.5775461001322,569.5775929000229,569.5897634001449,569.5897634001449,569.5897634001449,572.6000012001023,550,1,[3.0200445000082254],[3.020053000189364],0001,001,2024-11-11_08h51.53.569,Intentional building,2024.1.5,None,2024-11-11 08h52.05.649577 +0530,
0.4,400,unexp,7,7,91,1,572.6131893997081,,572.6007186998613,572.6131893997081,573.6131480000913,573.6131480000913,573.6131480000913,574.8491027001292,space,1.2269357000477612,None,574.8498730999418,575.2630642667102,575.5702566998079,575.557657300029,575.5577023001388,575.5702566998079,575.5702566998079,575.5702566998079,579.6305482997559,780,1,[4.070968000218272],[4.070976700168103],0001,001,2024-11-11_08h51.53.569,Intentional building,2024.1.5,None,2024-11-11 08h52.05.649577 +0530,
0.1,1000,exp,7,8,92,3,579.6462856000289,,579.6312154000625,579.6462856000289,580.6463113999926,580.6463113999926,580.6463113999926,581.0322870998643,space,0.3732942999340594,None,581.0333082000725,581.1463100664007,581.4604464001022,581.4485494997352,581.4486007997766,581.4604464001022,581.4604464001022,581.4604464001022,584.3976301001385,650,1,[2.947067600209266],[2.9470747001469135],0001,001,2024-11-11_08h51.53.569,Intentional building,2024.1.5,None,2024-11-11 08h52.05.649577 +0530,
0.7,1000,exp,7,9,93,5,584.4130243998952,,584.3983300998807,584.4130243998952,585.4131816001609,585.4131816001609,585.4131816001609,587.2315746997483,space,1.809501999989152,None,587.2323785000481,587.9463006663757,588.2642255998217,588.2481953999959,588.2482413998805,588.2642255998217,588.2642255998217,588.2642255998217,594.9975072997622,450,1,[6.747096900362521],[6.747107000090182],0001,001,2024-11-11_08h51.53.569,Intentional building,2024.1.5,None,2024-11-11 08h52.05.649577 +0530,
0.1,1000,exp,7,10,94,9,595.0128969997168,,594.9990054997616,595.0128969997168,596.0132885999046,596.0132885999046,596.0132885999046,596.8153260997497,space,0.7943301000632346,None,596.8165230997838,596.9298752668003,597.2427663998678,597.2275228998624,597.2275705998763,597.2427663998678,597.2427663998678,597.2427663998678,610.5979284001514,450,1,[13.368212299887091],[13.368233600165695],0001,001,2024-11-11_08h51.53.569,Intentional building,2024.1.5,None,2024-11-11 08h52.05.649577 +0530,
0.1,1000,exp,7,11,95,6,610.6132097998634,,610.5989481001161,610.6132097998634,611.6129632997327,611.6129632997327,611.6129632997327,617.8650583000854,space,6.2443467997945845,None,617.8660470000468,617.9798770663949,618.2922513997182,618.2774231997319,618.2774714999832,618.2922513997182,618.2922513997182,618.2922513997182,625.8145376998,550,1,[7.534630599897355],[7.534639399964362],0001,001,2024-11-11_08h51.53.569,Intentional building,2024.1.5,None,2024-11-11 08h52.05.649577 +0530,
0.7,1000,exp,8,0,96,11,625.8299757000059,,625.8153762998991,625.8299757000059,626.8299837000668,626.8299837000668,626.8299837000668,630.4319019000977,space,3.589491399936378,None,630.4326855000108,631.1465469664583,631.4597557000816,631.4477713000961,631.447813199833,631.4597557000816,631.4597557000816,631.4597557000816,634.1310912999325,600,1,[2.681164000183344],[2.6811714000068605],0001,001,2024-11-11_08h51.53.569,Intentional building,2024.1.5,None,2024-11-11 08h52.05.649577 +0530,
0.4,1000,exp,8,1,97,7,634.1466299998574,,634.1318471999839,634.1466299998574,635.146635199897,635.146635199897,635.146635199897,637.7980232997797,space,2.640604400075972,None,637.7984015000984,638.2131871665517,638.521255900152,638.5075733000413,638.5076148998924,638.521255900152,638.521255900152,638.521255900152,642.2812189999968,780,1,[3.771544400136918],[3.771558300126344],0001,001,2024-11-11_08h51.53.569,Intentional building,2024.1.5,None,2024-11-11 08h52.05.649577 +0530,
0.7,1000,exp,8,2,98,5,642.2967455000617,,642.2822765000165,642.2967455000617,643.2967028999701,643.2967028999701,643.2967028999701,644.86421540007,space,1.550870300270617,None,644.8650134000927,645.5797871663856,645.8894877997227,645.8775768000633,645.877630900126,645.8894877997227,645.8894877997227,645.8894877997227,648.9310892000794,650,1,[3.0511186998337507],[3.0511285001412034],0001,001,2024-11-11_08h51.53.569,Intentional building,2024.1.5,None,2024-11-11 08h52.05.649577 +0530,
0.1,1000,exp,8,3,99,3,648.9464309001341,,648.9317632997409,648.9464309001341,649.9468760997988,649.9468760997988,649.9468760997988,652.9314779997803,space,2.98015489988029,None,652.9321618000977,653.0464220666947,653.3632880998775,653.34736600006,653.3474135999568,653.3632880998775,653.3632880998775,653.3632880998775,656.0991583000869,400,1,[2.749497899785638],[2.7495086998678744],0001,001,2024-11-11_08h51.53.569,Intentional building,2024.1.5,None,2024-11-11 08h52.05.649577 +0530,
0.4,400,unexp,8,4,100,1,656.1134882001206,,656.1005398998968,656.1134882001206,657.1135478997603,657.1135478997603,657.1135478997603,659.8152131000534,space,2.6900150002911687,None,659.8158682999201,660.2300098664748,660.5444593001157,660.5277176997624,660.5277645997703,660.5444593001157,660.5444593001157,660.5444593001157,662.6978714000434,780,1,[2.1679186997935176],[2.1679262998513877],0001,001,2024-11-11_08h51.53.569,Intentional building,2024.1.5,None,2024-11-11 08h52.05.649577 +0530,
0.1,1000,exp,8,5,101,9,662.7132701999508,,662.6988590997644,662.7132701999508,663.7133200000972,663.7133200000972,663.7133200000972,667.3323630001396,space,3.614549799822271,None,667.3332183999009,667.4464284666503,667.7523468998261,667.7408106997609,667.7408599997871,667.7523468998261,667.7523468998261,667.7523468998261,671.331113900058,450,1,[3.588194400072098],[3.5882051000371575],0001,001,2024-11-11_08h51.53.569,Intentional building,2024.1.5,None,2024-11-11 08h52.05.649577 +0530,
0.4,1000,exp,8,6,102,10,671.3469281997532,,671.3323629000224,671.3469281997532,672.3465443998575,672.3465443998575,672.3465443998575,676.4642587997951,space,4.115625000093132,None,676.4647379000671,676.8798703668328,677.1899656001478,677.1782319997437,677.1782709998079,677.1899656001478,677.1899656001478,677.1899656001478,681.5641777999699,550,1,[4.383645900059491],[4.383653400000185],0001,001,2024-11-11_08h51.53.569,Intentional building,2024.1.5,None,2024-11-11 08h52.05.649577 +0530,
0.1,1000,exp,8,7,103,6,681.5797055000439,,681.5647673001513,681.5797055000439,682.5799010000192,682.5799010000192,682.5799010000192,683.56504580006,space,0.9725126000121236,None,683.5658680000342,683.6799880667279,683.9898859998211,683.977672799956,683.9777214000933,683.9898859998211,683.9898859998211,683.9898859998211,687.0647116000764,670,1,[3.0847769998945296],[3.0847871997393668],0001,001,2024-11-11_08h51.53.569,Intentional building,2024.1.5,None,2024-11-11 08h52.05.649577 +0530,
0.1,400,unexp,8,8,104,0,687.0801737001166,,687.0657420000061,687.0801737001166,688.0802520997822,688.0802520997822,688.0802520997822,688.7987003000453,space,0.7096690000034869,None,688.799579099752,688.9133653664651,689.2196538997814,689.2073170999065,689.2073626997881,689.2196538997814,689.2196538997814,689.2196538997814,692.4980624997988,900,1,[3.2887365999631584],[3.288745899684727],0001,001,2024-11-11_08h51.53.569,Intentional building,2024.1.5,None,2024-11-11 08h52.05.649577 +0530,
0.7,1000,exp,8,9,105,8,692.5132857998833,,692.4989080000669,692.5132857998833,693.5133120999672,693.5133120999672,693.5133120999672,696.9151586997323,space,3.386836300138384,None,696.9161295001395,697.6299254666703,697.9326534001157,697.9207021999173,697.9207361997105,697.9326534001157,697.9326534001157,697.9326534001157,706.5312419999391,280,1,[8.60886409971863],[8.608875500038266],0001,001,2024-11-11_08h51.53.569,Intentional building,2024.1.5,None,2024-11-11 08h52.05.649577 +0530,
0.7,400,unexp,8,10,106,2,706.5467257001437,,706.5319544998929,706.5467257001437,707.5467480998486,707.5467480998486,707.5467480998486,708.1835952997208,space,0.6321339001879096,None,708.1842919001356,708.8964909664976,709.2028402998112,709.191735399887,709.1917817997746,709.2028402998112,709.2028402998112,709.2028402998112,711.5512010999955,670,1,[2.357354100327939],[2.35736560029909],0001,001,2024-11-11_08h51.53.569,Intentional building,2024.1.5,None,2024-11-11 08h52.05.649577 +0530,
0.4,1000,exp,8,11,107,4,711.5634475001134,,711.5522344997153,711.5634475001134,712.5633316999301,712.5633316999301,712.5633316999301,713.8478870997205,space,1.272622300311923,None,713.8482399000786,714.263398166808,714.5689600999467,714.5591875999235,714.5592497000471,714.5689600999467,714.5689600999467,714.5689600999467,716.5146777997725,580,1,[1.9538110997527838],[1.953818399924785],0001,001,2024-11-11_08h51.53.569,Intentional building,2024.1.5,None,2024-11-11 08h52.05.649577 +0530,
0.1,1000,exp,9,0,108,6,716.5301375999115,,716.5155404997058,716.5301375999115,717.529978999868,717.529978999868,717.529978999868,717.8645071000792,space,0.32098260009661317,None,717.8651666999795,717.9799082666325,718.2910452997312,718.2773239999078,718.2773748999462,718.2910452997312,718.2910452997312,718.2910452997312,722.4808706999756,980,1,[4.2015241999179125],[4.201530199963599],0001,001,2024-11-11_08h51.53.569,Intentional building,2024.1.5,None,2024-11-11 08h52.05.649577 +0530,
0.7,400,unexp,9,1,109,2,722.4965244997293,,722.4814662998542,722.4965244997293,723.4968389999121,723.4968389999121,723.4968389999121,724.3476446000859,space,0.8454080000519753,None,724.3480088999495,725.0633872664223,725.368864600081,725.3572653001174,725.357309400104,725.368864600081,725.368864600081,725.368864600081,728.9973164997064,530,1,[3.638315800111741],[3.6383219002746046],0001,001,2024-11-11_08h51.53.569,Intentional building,2024.1.5,None,2024-11-11 08h52.05.649577 +0530,
0.4,1000,exp,9,2,110,4,729.0132210999727,,728.9980330001563,729.0132210999727,729.9968670001253,729.9968670001253,730.0134133999236,731.066114500165,space,1.064496099948883,None,731.0668990998529,731.4803656666229,731.7877357001416,731.7781328000128,731.7781818001531,731.7877357001416,731.7877357001416,731.7877357001416,734.0821050000377,220,1,[2.3014048002660275],[2.3014163998886943],0001,001,2024-11-11_08h51.53.569,Intentional building,2024.1.5,None,2024-11-11 08h52.05.649577 +0530,
0.7,1000,exp,9,3,111,11,734.0967691000551,,734.0828065001406,734.0967691000551,735.0969655998051,735.0969655998051,735.0969655998051,737.381712900009,space,2.2794714998453856,None,737.3826020997949,738.0967033664385,738.4100277000107,738.3977187001146,738.3977646999992,738.4100277000107,738.4100277000107,738.4100277000107,741.5312119997106,440,1,[3.131327699869871],[3.1313359001651406],0001,001,2024-11-11_08h51.53.569,Intentional building,2024.1.5,None,2024-11-11 08h52.05.649577 +0530,
0.7,1000,exp,9,4,112,8,741.5468723997474,,741.5322338999249,741.5468723997474,742.5470265001059,742.5470265001059,742.5470265001059,745.4649986000732,space,2.9108216003514826,None,745.46582019981,746.1802699664297,746.4930607997812,746.4772322997451,746.4772779000923,746.4930607997812,746.4930607997812,746.4930607997812,750.4314961000346,550,1,[3.952007899992168],[3.95202049985528],0001,001,2024-11-11_08h51.53.569,Intentional building,2024.1.5,None,2024-11-11 08h52.05.649577 +0530,
0.4,1000,exp,9,5,113,10,750.447023499757,,750.4324276000261,750.447023499757,751.4468596000224,751.4468596000224,751.4468596000224,752.7486534998752,space,1.2872831001877785,None,752.7495054998435,753.1633277666444,753.4704689001665,753.4575462001376,753.4575904998928,753.4704689001665,753.4704689001665,753.4704689001665,754.9647257998586,800,1,[1.5050393999554217],[1.5050494000315666],0001,001,2024-11-11_08h51.53.569,Intentional building,2024.1.5,None,2024-11-11 08h52.05.649577 +0530,
0.1,1000,exp,9,6,114,3,754.9802427999675,,754.9657744998112,754.9802427999675,755.9800316998735,755.9800316998735,755.9800316998735,758.766746299807,space,2.776076499838382,None,758.7676182999276,758.8803807665283,759.1952521000057,759.1776078999974,759.1776485000737,759.1952521000057,759.1952521000057,759.1952521000057,762.2981982999481,650,1,[3.1180607001297176],[3.1180675998330116],0001,001,2024-11-11_08h51.53.569,Intentional building,2024.1.5,None,2024-11-11 08h52.05.649577 +0530,
0.4,1000,exp,9,7,115,7,762.313396200072,,762.2988863997161,762.313396200072,763.3136426997371,763.3136426997371,763.3136426997371,765.0495142997243,space,1.7303917999379337,None,765.0503026000224,765.4635958667534,765.768530999776,765.7572878999636,765.7573289000429,765.768530999776,765.768530999776,765.768530999776,768.8145888997242,430,1,[3.0553454998880625],[3.0553521998226643],0001,001,2024-11-11_08h51.53.569,Intentional building,2024.1.5,None,2024-11-11 08h52.05.649577 +0530,
0.7,1000,exp,9,8,116,5,768.8300236999057,,768.8153109000996,768.8300236999057,769.8300867998041,769.8300867998041,769.8300867998041,771.1484572999179,space,1.3157993000932038,None,771.1491624000482,771.8634729665393,772.1695507997647,772.1575199998915,772.1575917997397,772.1695507997647,772.1695507997647,772.1695507997647,775.1152563998476,490,1,[2.9557536002248526],[2.9557628999464214],0001,001,2024-11-11_08h51.53.569,Intentional building,2024.1.5,None,2024-11-11 08h52.05.649577 +0530,
0.1,1000,exp,9,9,117,9,775.1299056997523,,775.1162340999581,775.1299056997523,776.1301953000948,776.1301953000948,776.1301953000948,777.0151002998464,space,0.8822549004107714,None,777.0159220998175,777.1301082666653,777.4404988000169,777.4272627998143,777.4273088001646,777.4404988000169,777.4404988000169,777.4404988000169,780.4814079999924,540,1,[3.05195439979434],[3.0519695999100804],0001,001,2024-11-11_08h51.53.569,Intentional building,2024.1.5,None,2024-11-11 08h52.05.649577 +0530,
0.4,400,unexp,9,10,118,1,780.4968924000859,,780.4819879997522,780.4968924000859,781.4967664000578,781.4967664000578,781.4967664000578,782.6815693001263,space,1.1749554998241365,None,782.6821922999807,783.0967110666136,783.4102317998186,783.3973630997352,783.3974119997583,783.4102317998186,783.4102317998186,783.4102317998186,786.2924390998669,650,1,[2.8928537000901997],[2.8928650999441743],0001,001,2024-11-11_08h51.53.569,Intentional building,2024.1.5,None,2024-11-11 08h52.05.649577 +0530,
0.1,400,unexp,9,11,119,0,786.2982379999012,,786.2933710999787,786.2982379999012,787.2969586998224,787.2969586998224,787.313435100019,788.2318588001654,space,0.9295970001257956,None,788.2326774997637,788.3467617664176,788.6598159000278,788.6477859998122,788.647832499817,788.6598159000278,788.6598159000278,788.6598159000278,793.6646165000275,650,1,[5.0145566002465785],[5.014564400073141],0001,001,2024-11-11_08h51.53.569,Intentional building,2024.1.5,None,2024-11-11 08h52.05.649577 +0530,
0.1,1000,exp,10,0,120,3,793.6801537000574,,793.6653980999254,793.6801537000574,794.6802090001293,794.6802090001293,794.6802090001293,794.9815903999843,space,0.293811300303787,None,794.9825372998603,795.0966908666926,795.4124225000851,795.3973137000576,795.3973592999391,795.4124225000851,795.4124225000851,795.4124225000851,797.6979641998187,400,1,[2.2985033998265862],[2.2985115996561944],0001,001,2024-11-11_08h51.53.569,Intentional building,2024.1.5,None,2024-11-11 08h52.05.649577 +0530,
0.4,1000,exp,10,1,121,10,797.7134408000857,,797.6988176000305,797.7134408000857,798.7135886000469,798.7135886000469,798.7135886000469,800.5155028998852,space,1.7904794998466969,None,800.5163262998685,800.9299908667492,801.2393390000798,801.2274861000478,801.2275370997377,801.2393390000798,801.2393390000798,801.2393390000798,802.9982297001407,350,1,[1.7685758997686207],[1.7685838998295367],0001,001,2024-11-11_08h51.53.569,Intentional building,2024.1.5,None,2024-11-11 08h52.05.649577 +0530,
0.7,400,unexp,10,2,122,2,803.0134987998754,,802.9991248999722,803.0134987998754,804.0137513997033,804.0137513997033,804.0137513997033,816.5988495000638,space,12.569086099974811,None,816.5997068998404,817.3136759666415,817.619820700027,817.6075412998907,817.6075836997479,817.619820700027,817.619820700027,817.619820700027,821.1976430001669,560,1,[3.588236900046468],[3.588245399761945],0001,001,2024-11-11_08h51.53.569,Intentional building,2024.1.5,None,2024-11-11 08h52.05.649577 +0530,
0.7,1000,exp,10,3,123,11,821.2133833998814,,821.1982879997231,821.2133833998814,822.1970751998015,822.1970751998015,822.2135307998396,823.1984898000956,space,0.991193599998951,None,823.1991371000186,823.9136205665457,824.2197238998488,824.2074724999256,824.207516499795,824.2197238998488,824.2197238998488,824.2197238998488,826.4648059001192,700,1,[2.2553556002676487],[2.2553622000850737],0001,001,2024-11-11_08h51.53.569,Intentional building,2024.1.5,None,2024-11-11 08h52.05.649577 +0530,
0.7,1000,exp,10,4,124,5,826.4803025997244,,826.4655228001066,826.4803025997244,827.4804189000279,827.4804189000279,827.4804189000279,832.2487030997872,space,4.754256899934262,None,832.2494128998369,832.9635905665966,833.2720455997624,833.2574253999628,833.2574752001092,833.2720455997624,833.2720455997624,833.2720455997624,835.7311758999713,670,1,[2.471687600016594],[2.471695899963379],0001,001,2024-11-11_08h51.53.569,Intentional building,2024.1.5,None,2024-11-11 08h52.05.649577 +0530,
0.4,1000,exp,10,5,125,4,835.7467408999801,,835.7318130000494,835.7467408999801,836.7469886997715,836.7469886997715,836.7469886997715,837.8819142999128,space,1.1312154000625014,None,837.8827106999233,838.2968820664721,838.6080563999712,838.5974261998199,838.5974706998095,838.6080563999712,838.6080563999712,838.6080563999712,843.2154374998063,750,1,[4.61593300011009],[4.615942199714482],0001,001,2024-11-11_08h51.53.569,Intentional building,2024.1.5,None,2024-11-11 08h52.05.649577 +0530,
0.1,1000,exp,10,6,126,6,843.2302039000206,,843.2161665000021,843.2302039000206,844.2303920998238,844.2303920998238,844.2303920998238,846.9826617999934,space,2.748868000227958,None,846.9833072000183,847.096919966458,847.4096764000133,847.3970971000381,847.3971401997842,847.4096764000133,847.4096764000133,847.4096764000133,852.5985574000515,700,1,[5.199444099795073],[5.199452999979258],0001,001,2024-11-11_08h51.53.569,Intentional building,2024.1.5,None,2024-11-11 08h52.05.649577 +0530,
0.4,1000,exp,10,7,127,7,852.613465399947,,852.5993988998234,852.613465399947,853.6137653999031,853.6137653999031,853.6137653999031,854.2485785000026,space,0.6248753000982106,None,854.2492832001299,854.6634314666192,854.9721606997773,854.9576094998047,854.9576535001397,854.9721606997773,854.9721606997773,854.9721606997773,856.9675404001027,850,1,[2.007762299850583],[2.0077748000621796],0001,001,2024-11-11_08h51.53.569,Intentional building,2024.1.5,None,2024-11-11 08h52.05.649577 +0530,
0.1,400,unexp,10,8,128,0,856.9802351999097,,856.9685709998012,856.9802351999097,857.9802406998351,857.9802406998351,857.9802406998351,861.7651225998998,space,3.768243999686092,None,861.76582149975,861.8801340666289,862.1834726999514,862.1727126999758,862.172743299976,862.1834726999514,862.1834726999514,862.1834726999514,866.1983643998392,640,1,[4.023933600168675],[4.023946400266141],0001,001,2024-11-11_08h51.53.569,Intentional building,2024.1.5,None,2024-11-11 08h52.05.649577 +0530,
0.7,1000,exp,10,9,129,8,866.2135227997787,,866.1991614997387,866.2135227997787,867.2138602999039,867.2138602999039,867.2138602999039,869.0828136997297,space,1.865436699707061,None,869.0836219997145,869.7968791667993,870.1101246001199,870.097388099879,870.0974610997364,870.1101246001199,870.1101246001199,870.1101246001199,872.898064899724,780,1,[2.7982954001054168],[2.7983057000674307],0001,001,2024-11-11_08h51.53.569,Intentional building,2024.1.5,None,2024-11-11 08h52.05.649577 +0530,
0.4,400,unexp,10,10,130,1,872.9137136000209,,872.8990855999291,872.9137136000209,873.9135563001037,873.9135563001037,873.9135563001037,876.4659190997481,space,2.5500693996436894,None,876.4667014000006,876.8803609666104,877.1906149000861,877.177346999757,877.1773926001042,877.1906149000861,877.1906149000861,877.1906149000861,878.9314482999034,500,1,[1.7515753000043333],[1.7515835999511182],0001,001,2024-11-11_08h51.53.569,Intentional building,2024.1.5,None,2024-11-11 08h52.05.649577 +0530,
0.1,1000,exp,10,11,131,9,878.9469937998801,,878.9330277997069,878.9469937998801,879.9468955998309,879.9468955998309,879.9468955998309,883.3495761998929,space,3.395855200011283,None,883.350451100152,883.4636735665301,883.770776099991,883.7573024998419,883.7573448000476,883.770776099991,883.770776099991,883.770776099991,886.2808447997086,540,1,[2.5217237998731434],[2.5217296998016536],0001,001,2024-11-11_08h51.53.569,Intentional building,2024.1.5,None,2024-11-11 08h52.05.649577 +0530,
0.1,1000,exp,11,0,132,6,886.2969647999853,,886.2814198997803,886.2969647999853,887.2804604000412,887.2804604000412,887.2971461997367,890.0827986998484,space,2.7954327003099024,None,890.0836086999625,890.196819966721,890.5113244000822,890.497282399796,890.4973704000004,890.5113244000822,890.5113244000822,890.5113244000822,892.7647877000272,600,1,[2.265053399838507],[2.2650592997670174],0001,001,2024-11-11_08h51.53.569,Intentional building,2024.1.5,None,2024-11-11 08h52.05.649577 +0530,
0.7,1000,exp,11,1,133,8,892.7803631997667,,892.7654125997797,892.7803631997667,893.7804616997018,893.7804616997018,893.7804616997018,896.5152754997835,space,2.724100799765438,None,896.5160815999843,897.2304330664376,897.5488407998346,897.5327943000011,897.5328399999999,897.5488407998346,897.5488407998346,897.5488407998346,901.081926099956,700,1,[3.544441300444305],[3.5444609001278877],0001,001,2024-11-11_08h51.53.569,Intentional building,2024.1.5,None,2024-11-11 08h52.05.649577 +0530,
0.4,1000,exp,11,2,134,7,901.0971393999644,,901.0827003000304,901.0971393999644,902.0971335000359,902.0971335000359,902.0971335000359,903.2990823998116,space,1.1876198998652399,None,903.300087899901,903.7137119668225,904.018685599789,904.0071815997362,904.0072344001383,904.018685599789,904.018685599789,904.018685599789,906.5983259999193,550,1,[2.5892346003092825],[2.589244000148028],0001,001,2024-11-11_08h51.53.569,Intentional building,2024.1.5,None,2024-11-11 08h52.05.649577 +0530,
0.4,1000,exp,11,3,135,4,906.6136958999559,,906.5994082000107,906.6136958999559,907.613552799914,907.613552799914,907.613552799914,908.7331145000644,space,1.1126569001935422,None,908.7339258999564,909.1471347665104,909.4613116998225,909.4470734000206,909.4471235000528,909.4613116998225,909.4613116998225,909.4613116998225,912.1817445000634,600,1,[2.7322382000274956],[2.73224710021168],0001,001,2024-11-11_08h51.53.569,Intentional building,2024.1.5,None,2024-11-11 08h52.05.649577 +0530,
0.4,400,unexp,11,4,136,1,912.1971096000634,,912.1827692999505,912.1971096000634,913.1971474997699,913.1971474997699,913.1971474997699,915.949208300095,space,2.740878699813038,None,915.9499694998376,916.3638028666066,916.6679091998376,916.6571959001012,916.6572408000939,916.6679091998376,916.6679091998376,916.6679091998376,918.4323672000319,600,1,[1.772791299968958],[1.7728005000390112],0001,001,2024-11-11_08h51.53.569,Intentional building,2024.1.5,None,2024-11-11 08h52.05.649577 +0530,
0.1,1000,exp,11,5,137,9,918.4471187000163,,918.4331380999647,918.4471187000163,919.4472006997094,919.4472006997094,919.4472006997094,920.6999534997158,space,1.2435175999999046,None,920.7007770999335,920.8137481664928,921.1184054999612,921.1070773000829,921.1071164999157,921.1184054999612,921.1184054999612,921.1184054999612,924.6816952000372,760,1,[3.5726007004268467],[3.5726090003736317],0001,001,2024-11-11_08h51.53.569,Intentional building,2024.1.5,None,2024-11-11 08h52.05.649577 +0530,
0.1,1000,exp,11,6,138,3,924.6971672000363,,924.6825536997057,924.6971672000363,925.6971327001229,925.6971327001229,925.6971327001229,926.1497225998901,space,0.44885870022699237,None,926.1505487998948,926.2636695667791,926.5702430000529,926.5573444999754,926.5573907997459,926.5702430000529,926.5702430000529,926.5702430000529,929.4167689001188,550,1,[2.857133800163865],[2.857148699928075],0001,001,2024-11-11_08h51.53.569,Intentional building,2024.1.5,None,2024-11-11 08h52.05.649577 +0530,
0.4,1000,exp,11,7,139,10,929.4313237997703,,929.4175748000853,929.4313237997703,930.430621500127,930.430621500127,930.430621500127,930.8326582000591,space,0.39391659991815686,None,930.8336721998639,931.2469084663937,931.5613885000348,931.547361199744,931.5474088001065,931.5613885000348,931.5613885000348,931.5613885000348,933.0814986997284,600,1,[1.5321383997797966],[1.5321467998437583],0001,001,2024-11-11_08h51.53.569,Intentional building,2024.1.5,None,2024-11-11 08h52.05.649577 +0530,
0.7,400,unexp,11,8,140,2,933.0968801998533,,933.0821370999329,933.0968801998533,934.0972696999088,934.0972696999088,934.0972696999088,934.5156684000976,space,0.4091237997636199,None,934.516473100055,935.2304524668182,935.5395367997698,935.5272303000093,935.5272717997432,935.5395367997698,935.5395367997698,935.5395367997698,937.8323657000437,550,1,[2.302818600088358],[2.302833799738437],0001,001,2024-11-11_08h51.53.569,Intentional building,2024.1.5,None,2024-11-11 08h52.05.649577 +0530,
0.7,1000,exp,11,9,141,5,937.8472700999118,,937.8338758000173,937.8472700999118,938.8469827999361,938.8469827999361,938.8469827999361,939.2985306000337,space,0.43475819984450936,None,939.2992529999465,940.013812666821,940.3212874000892,940.3072246001102,940.3072679000907,940.3212874000892,940.3212874000892,940.3212874000892,943.1315566999838,300,1,[2.8222230998799205],[2.822232299949974],0001,001,2024-11-11_08h51.53.569,Intentional building,2024.1.5,None,2024-11-11 08h52.05.649577 +0530,
0.7,1000,exp,11,10,142,11,943.1471565999091,,943.1325745997019,943.1471565999091,944.1472754999995,944.1472754999995,944.1472754999995,947.5986887998879,space,3.4374335003085434,None,947.599481199868,948.3137547667759,948.6202837000601,948.6071275998838,948.6071756999008,948.6202837000601,948.6202837000601,948.6202837000601,951.7656577001326,550,1,[3.1561741000041366],[3.1561936996877193],0001,001,2024-11-11_08h51.53.569,Intentional building,2024.1.5,None,2024-11-11 08h52.05.649577 +0530,
0.1,400,unexp,11,11,143,0,951.7805563998409,,951.7666875999421,951.7805563998409,952.7805797997862,952.7805797997862,952.7805797997862,953.8490208997391,space,1.0578371002338827,None,953.8498058998957,953.9637241666826,954.2693436001427,954.2572125997394,954.2572606997564,954.2693436001427,954.2693436001427,954.2693436001427,958.2812688997947,600,1,[4.022242899984121],[4.022249100264162],0001,001,2024-11-11_08h51.53.569,Intentional building,2024.1.5,None,2024-11-11 08h52.05.649577 +0530,
0.1,400,unexp,12,0,144,0,958.2969488999806,,958.281953800004,958.2969488999806,959.2972180997021,959.2972180997021,959.2972180997021,961.8829449000768,space,2.5781236002221704,None,961.8838667999953,961.997052166673,962.3135949000716,962.2970523000695,962.297097099945,962.3135949000716,962.3135949000716,962.3135949000716,965.5151145998389,560,1,[3.2159159001894295],[3.215925599914044],0001,001,2024-11-11_08h51.53.569,Intentional building,2024.1.5,None,2024-11-11 08h52.05.649577 +0530,
0.4,1000,exp,12,1,145,10,965.5304010999389,,965.5161691000685,965.5304010999389,966.5305671999231,966.5305671999231,966.5305671999231,967.4320539999753,space,0.8976487000472844,None,967.4328327998519,967.8472258668082,968.1609895001166,968.1474199998192,968.147465699818,968.1609895001166,968.1609895001166,968.1609895001166,971.5821346999146,330,1,[3.432517800014466],[3.432531400118023],0001,001,2024-11-11_08h51.53.569,Intentional building,2024.1.5,None,2024-11-11 08h52.05.649577 +0530,
0.4,1000,exp,12,2,146,4,971.5972421998158,,971.5831800997257,971.5972421998158,972.5971542000771,972.5971542000771,972.5971542000771,972.9154118997976,space,0.3048692997545004,None,972.9160703998059,973.3305596667963,973.6401601000689,973.627216400113,973.6272652000189,973.6401601000689,973.6401601000689,973.6401601000689,976.1816976000555,450,1,[2.552486900240183],[2.5524936998263],0001,001,2024-11-11_08h51.53.569,Intentional building,2024.1.5,None,2024-11-11 08h52.05.649577 +0530,
0.1,1000,exp,12,3,147,3,976.1972405998968,,976.1825101999566,976.1972405998968,977.1974193998612,977.1974193998612,977.1974193998612,978.0489241001196,space,0.8376735998317599,None,978.0497912000865,978.1636781665186,978.4764586999081,978.4670508997515,978.4670873000287,978.4764586999081,978.4764586999081,978.4764586999081,982.2314756000414,345,1,[3.762723899912089],[3.7627313998527825],0001,001,2024-11-11_08h51.53.569,Intentional building,2024.1.5,None,2024-11-11 08h52.05.649577 +0530,
0.1,1000,exp,12,4,148,9,982.246989000123,,982.2323337998241,982.246989000123,983.247311799787,983.247311799787,983.247311799787,984.6660281000659,space,1.4164058999158442,None,984.6668485999107,984.7804445666882,985.0909087001346,985.0766857997514,985.0767208999023,985.0909087001346,985.0909087001346,985.0909087001346,987.9481100998819,650,1,[2.8694480997510254],[2.869456499814987],0001,001,2024-11-11_08h51.53.569,Intentional building,2024.1.5,None,2024-11-11 08h52.05.649577 +0530,
0.7,1000,exp,12,5,149,11,987.9637382999063,,987.9488554000854,987.9637382999063,988.9638799000531,988.9638799000531,988.9638799000531,989.7818692000583,space,0.81312600011006,None,989.782399199903,990.4971624664652,990.8118662997149,990.7990493001416,990.7990931998938,990.8118662997149,990.8118662997149,990.8118662997149,995.2987291999161,650,1,[4.497425300069153],[4.497443800326437],0001,001,2024-11-11_08h51.53.569,Intentional building,2024.1.5,None,2024-11-11 08h52.05.649577 +0530,
0.4,1000,exp,12,6,150,7,995.3138016997837,,995.3003938999027,995.3138016997837,996.3140549999662,996.3140549999662,996.3140549999662,996.7155153998174,space,0.3909720000810921,None,996.7163101001643,997.1305706664609,997.4395590997301,997.4269965998828,997.427034500055,997.4395590997301,997.4395590997301,997.4395590997301,1000.8653569999151,453,1,[3.4361841999925673],[3.436193499714136],0001,001,2024-11-11_08h51.53.569,Intentional building,2024.1.5,None,2024-11-11 08h52.05.649577 +0530,
0.7,1000,exp,12,7,151,5,1000.8804846997373,,1000.8663846999407,1000.8804846997373,1001.8805034998804,1001.8805034998804,1001.8805034998804,1003.0821731998585,space,1.1863921000622213,None,1003.0830680998042,1003.797320266782,1004.110308600124,1004.0973121998832,1004.0973581001163,1004.110308600124,1004.110308600124,1004.110308600124,1008.6312413997948,547,1,[4.53158160019666],[4.531589699909091],0001,001,2024-11-11_08h51.53.569,Intentional building,2024.1.5,None,2024-11-11 08h52.05.649577 +0530,
0.7,1000,exp,12,8,152,8,1008.6473877998069,,1008.6319518000819,1008.6473877998069,1009.6304802997038,1009.6304802997038,1009.6472569997422,1011.4990873001516,space,1.8573735002428293,None,1011.4997471999377,1012.21379416675,1012.5238890000619,1012.5110689001158,1012.5111178997904,1012.5238890000619,1012.5238890000619,1012.5238890000619,1016.115193199832,765,1,[3.6016368996351957],[3.6016469998285174],0001,001,2024-11-11_08h51.53.569,Intentional building,2024.1.5,None,2024-11-11 08h52.05.649577 +0530,
0.4,400,unexp,12,9,153,1,1016.1307775997557,,1016.1160367000848,1016.1307775997557,1017.1308047999628,1017.1308047999628,1017.1308047999628,1021.3489553998224,space,4.208085599821061,None,1021.3497218997218,1021.7638635663936,1022.0823626997881,1022.0672634998336,1022.0673161000013,1022.0823626997881,1022.0823626997881,1022.0823626997881,1029.7990232999437,645,1,[7.729265300091356],[7.729283300228417],0001,001,2024-11-11_08h51.53.569,Intentional building,2024.1.5,None,2024-11-11 08h52.05.649577 +0530,
0.1,1000,exp,12,10,154,6,1029.8139948998578,,1029.8000139999203,1029.8139948998578,1030.8139295997098,1030.8139295997098,1030.8139295997098,1034.049172699917,space,3.223079000134021,None,1034.050195199903,1034.1637751665587,1034.4786931998096,1034.4614157998003,1034.4614655999467,1034.4786931998096,1034.4786931998096,1034.4786931998096,1039.135466299951,445,1,[4.671668000053614],[4.671674999874085],0001,001,2024-11-11_08h51.53.569,Intentional building,2024.1.5,None,2024-11-11 08h52.05.649577 +0530,
0.7,400,unexp,12,11,155,2,1039.1475781998597,,1039.1361322999,1039.1475781998597,1040.147312999703,1040.147312999703,1040.147312999703,1043.7156529999338,space,3.5535253998823464,None,1043.716467899736,1044.4306955664108,1044.74070890015,1044.7269059997052,1044.7269636001438,1044.74070890015,1044.74070890015,1044.74070890015,1047.9988289000466,546,1,[3.269746399950236],[3.26975499978289],0001,001,2024-11-11_08h51.53.569,Intentional building,2024.1.5,None,2024-11-11 08h52.05.649577 +0530,
0.1,1000,exp,13,0,156,6,1048.0140900998376,,1047.9998323000036,1048.0140900998376,1049.0140192997642,1049.0140192997642,1049.0140192997642,1054.315742999781,space,5.293336999602616,None,1054.316821699962,1054.4305643668088,1054.739297399763,1054.7270133998245,1054.7270581000485,1054.739297399763,1054.739297399763,1054.739297399763,1059.0209623998962,455,1,[4.291287200059742],[4.291293700225651],0001,001,2024-11-11_08h51.53.569,Intentional building,2024.1.5,None,2024-11-11 08h52.05.649577 +0530,
0.4,1000,exp,13,1,157,7,1059.0314683998004,,1059.0220558997244,1059.0314683998004,1060.030796899926,1060.030796899926,1060.030796899926,1061.2324120998383,space,1.1944721997715533,None,1061.2332068998367,1061.6474048668208,1061.9616128997877,1061.9469753000885,1061.9470254997723,1061.9616128997877,1061.9616128997877,1061.9616128997877,1065.8151468997821,755,1,[3.866354000288993],[3.866363300010562],0001,001,2024-11-11_08h51.53.569,Intentional building,2024.1.5,None,2024-11-11 08h52.05.649577 +0530,
0.4,1000,exp,13,2,158,10,1065.8309277999215,,1065.8162409998477,1065.8309277999215,1066.8305220999755,1066.8305220999755,1066.8305220999755,1067.4154459000565,space,0.5688918000087142,None,1067.4159478000365,1067.8306602663981,1068.1385098998435,1068.1270018997602,1068.1270420998335,1068.1385098998435,1068.1385098998435,1068.1385098998435,1072.7316824998707,955,1,[4.602929999586195],[4.602936199866235],0001,001,2024-11-11_08h51.53.569,Intentional building,2024.1.5,None,2024-11-11 08h52.05.649577 +0530,
0.1,1000,exp,13,3,159,9,1072.747232900001,,1072.7323036999442,1072.747232900001,1073.7476114998572,1073.7476114998572,1073.7476114998572,1074.2655178997666,space,0.5116336001083255,None,1074.2660801997408,1074.3805411668184,1074.689050400164,1074.6766836000606,1074.676738199778,1074.689050400164,1074.689050400164,1074.689050400164,1077.5149841001257,955,1,[2.836228699889034],[2.8362370999529958],0001,001,2024-11-11_08h51.53.569,Intentional building,2024.1.5,None,2024-11-11 08h52.05.649577 +0530,
0.1,1000,exp,13,4,160,3,1077.5306039000861,,1077.5158182997257,1077.5306039000861,1078.5307255997322,1078.5307255997322,1078.5307255997322,1082.0325700999238,space,3.4849464995786548,None,1082.033472099807,1082.147330166834,1082.4605012000538,1082.4472774998285,1082.4473338997923,1082.4605012000538,1082.4605012000538,1082.4605012000538,1086.8650564998388,905,1,[4.415755900088698],[4.41576230013743],0001,001,2024-11-11_08h51.53.569,Intentional building,2024.1.5,None,2024-11-11 08h52.05.649577 +0530,
0.7,1000,exp,13,5,161,8,1086.8805287997238,,1086.8659918000922,1086.8805287997238,1087.8806086997502,1087.8806086997502,1087.8806086997502,1089.9991934001446,space,2.1106397002004087,None,1090.0000163000077,1090.7139645666505,1091.0291188000701,1091.017159699928,1091.0172079000622,1091.0291188000701,1091.0291188000701,1091.0291188000701,1094.4812309998088,750,1,[3.4623430999927223],[3.4623492998071015],0001,001,2024-11-11_08h51.53.569,Intentional building,2024.1.5,None,2024-11-11 08h52.05.649577 +0530,
0.7,400,unexp,13,6,162,2,1094.4974970999174,,1094.4819133998826,1094.4974970999174,1095.4807374998927,1095.4807374998927,1095.4973673000932,1095.9824056997895,space,0.4954936997964978,None,1095.9832452000119,1096.6974432664613,1097.0103353997692,1096.9968198998831,1096.9968705000356,1097.0103353997692,1097.0103353997692,1097.0103353997692,1099.5315769999288,550,1,[2.5328886001370847],[2.5328957000747323],0001,001,2024-11-11_08h51.53.569,Intentional building,2024.1.5,None,2024-11-11 08h52.05.649577 +0530,
0.1,400,unexp,13,7,163,0,1099.5471215001307,,1099.5322980000637,1099.5471215001307,1100.5476877000183,1100.5476877000183,1100.5476877000183,1101.1826193998568,space,0.6207025996409357,None,1101.183603500016,1101.2974368665057,1101.6047523999587,1101.5912012998015,1101.591245399788,1101.6047523999587,1101.6047523999587,1101.6047523999587,1105.6191074997187,755,1,[4.02584550017491],[4.025852600112557],0001,001,2024-11-11_08h51.53.569,Intentional building,2024.1.5,None,2024-11-11 08h52.05.649577 +0530,
0.4,1000,exp,13,8,164,4,1105.630673899781,,1105.6198646998964,1105.630673899781,1106.6309317997657,1106.6309317997657,1106.6309317997657,1107.6004071999341,space,0.9656827002763748,None,1107.6012877998874,1108.0141613665658,1108.3308389000595,1108.3172375997528,1108.3172832997516,1108.3308389000595,1108.3308389000595,1108.3308389000595,1112.7823906997219,505,1,[4.462934299837798],[4.46294720005244],0001,001,2024-11-11_08h51.53.569,Intentional building,2024.1.5,None,2024-11-11 08h52.05.649577 +0530,
0.4,400,unexp,13,9,165,1,1112.797558600083,,1112.783441199921,1112.797558600083,1113.7973660998978,1113.7973660998978,1113.7973660998978,1114.8327982998453,space,1.0245405999012291,None,1114.8338012997992,1115.247410466491,1115.558314499911,1115.546786900144,1115.5468323999085,1115.558314499911,1115.558314499911,1115.558314499911,1117.8816978000104,220,1,[2.3327339999377728],[2.3327424000017345],0001,001,2024-11-11_08h51.53.569,Intentional building,2024.1.5,None,2024-11-11 08h52.05.649577 +0530,
0.7,1000,exp,13,10,166,5,1117.89746379992,,1117.8825305998325,1117.89746379992,1118.897539800033,1118.897539800033,1118.897539800033,1119.4828121997416,space,0.5696013001725078,None,1119.4836312998086,1120.1973353666874,1120.5092699001543,1120.4969194997102,1120.496974399779,1120.5092699001543,1120.5092699001543,1120.5092699001543,1123.1319737997837,235,1,[2.6328437998890877],[2.6328521999530494],0001,001,2024-11-11_08h51.53.569,Intentional building,2024.1.5,None,2024-11-11 08h52.05.649577 +0530,
0.7,1000,exp,13,11,167,11,1123.1476781000383,,1123.133002600167,1123.1476781000383,1124.1476916000247,1124.1476916000247,1124.1476916000247,1124.6497697997838,space,0.49604230001568794,None,1124.6505998000503,1125.3639747664022,1125.676303199958,1125.6616985001601,1125.6617467999458,1125.676303199958,1125.676303199958,1125.676303199958,1131.1980948001146,435,1,[5.53416070016101],[5.534167800098658],0001,001,2024-11-11_08h51.53.569,Intentional building,2024.1.5,None,2024-11-11 08h52.05.649577 +0530,
0.4,1000,exp,14,0,168,10,1131.2140122000128,,1131.1988948998041,1131.2140122000128,1132.2141991001554,1132.2141991001554,1132.2141991001554,1132.6671361997724,space,0.4407497998327017,None,1132.6679973998107,1133.0808223668175,1133.3906097998843,1133.3769799997099,1133.37702250015,1133.3906097998843,1133.3906097998843,1133.3906097998843,1136.498812600039,642,1,[3.1197798000648618],[3.1197940004058182],0001,001,2024-11-11_08h51.53.569,Intentional building,2024.1.5,None,2024-11-11 08h52.05.649577 +0530,
0.1,1000,exp,14,1,169,3,1136.514151699841,,1136.5001980001107,1136.514151699841,1137.514018099755,1137.514018099755,1137.514018099755,1138.131954099983,space,0.601467200089246,None,1138.1326355999336,1138.2474613665293,1138.5557586001232,1138.5417237998918,1138.5417729001492,1138.5557586001232,1138.5557586001232,1138.5557586001232,1140.8490528999828,548,1,[2.3052081996575],[2.3052185997366905],0001,001,2024-11-11_08h51.53.569,Intentional building,2024.1.5,None,2024-11-11 08h52.05.649577 +0530,
0.4,400,unexp,14,2,170,1,1140.8642203998752,,1140.850021299906,1140.8642203998752,1141.864153899718,1141.864153899718,1141.864153899718,1142.2325963997282,space,0.3521747998893261,None,1142.2333415998146,1142.6474790666873,1142.962094699964,1142.946944499854,1142.9469956001267,1142.962094699964,1142.962094699964,1142.962094699964,1147.9491602997296,933 ,1,[4.999729899689555],[4.999745599925518],0001,001,2024-11-11_08h51.53.569,Intentional building,2024.1.5,None,2024-11-11 08h52.05.649577 +0530,
0.7,400,unexp,14,3,171,2,1147.9641070999205,,1147.9501987998374,1147.9641070999205,1148.9642006000504,1148.9642006000504,1148.9642006000504,1151.9993123998865,space,3.0306633999571204,None,1152.0000279997475,1152.7140953667151,1153.0319298999384,1153.0173792997375,1153.0174254998565,1153.0319298999384,1153.0319298999384,1153.0319298999384,1155.2818251000717,837,1,[2.2622945001348853],[2.2623021001927555],0001,001,2024-11-11_08h51.53.569,Intentional building,2024.1.5,None,2024-11-11 08h52.05.649577 +0530,
0.4,1000,exp,14,4,172,7,1155.2974898000248,,1155.2831230000593,1155.2974898000248,1156.2975496998988,1156.2975496998988,1156.2975496998988,1157.6001419997774,space,1.3005892997607589,None,1157.6005190997384,1158.0140039665314,1158.3311966001056,1158.3171850997023,1158.317231199704,1158.3311966001056,1158.3311966001056,1158.3311966001056,1169.8660512999631,670,1,[11.546373999677598],[11.546387499663979],0001,001,2024-11-11_08h51.53.569,Intentional building,2024.1.5,None,2024-11-11 08h52.05.649577 +0530,
0.1,400,unexp,14,5,173,0,1169.8809913997538,,1169.86778290011,1169.8809913997538,1170.881019699853,1170.881019699853,1170.881019699853,1176.7993224998936,space,5.914150899741799,None,1176.7996979998425,1176.9140857668283,1177.226023499854,1177.2115023997612,1177.211548899766,1177.226023499854,1177.226023499854,1177.226023499854,1181.381751799956,850,1,[4.167841000016779],[4.167850099969655],0001,001,2024-11-11_08h51.53.569,Intentional building,2024.1.5,None,2024-11-11 08h52.05.649577 +0530,
0.4,1000,exp,14,6,174,4,1181.3975287000649,,1181.382438799832,1181.3975287000649,1182.39744290011,1182.39744290011,1182.39744290011,1186.0824303999543,space,3.6814957996830344,None,1186.083245899994,1186.4977337667408,1186.7982075000182,1186.787897199858,1186.7879270999692,1186.7982075000182,1186.7982075000182,1186.7982075000182,1188.882477299776,450,1,[2.0929219000972807],[2.092934299726039],0001,001,2024-11-11_08h51.53.569,Intentional building,2024.1.5,None,2024-11-11 08h52.05.649577 +0530,
0.7,1000,exp,14,7,175,11,1188.8974934997968,,1188.8834903999232,1188.8974934997968,1189.8976189000532,1189.8976189000532,1189.8976189000532,1193.032362899743,space,3.1174063002690673,None,1193.0331541998312,1193.7478332664507,1194.0603318000212,1194.0470972997136,1194.0471549998038,1194.0603318000212,1194.0603318000212,1194.0603318000212,1198.4155242000706,435,1,[4.366144499741495],[4.366152700036764],0001,001,2024-11-11_08h51.53.569,Intentional building,2024.1.5,None,2024-11-11 08h52.05.649577 +0530,
0.1,1000,exp,14,8,176,9,1198.4310757997446,,1198.416426599957,1198.4310757997446,1199.4309402997606,1199.4309402997606,1199.4309402997606,1201.2692812997848,space,1.834894800093025,None,1201.2700467999093,1201.3808327667105,1201.6898215999827,1201.6768172997981,1201.6768610998988,1201.6898215999827,1201.6898215999827,1201.6898215999827,1204.4321706001647,650,1,[2.7531288997270167],[2.7531429999507964],0001,001,2024-11-11_08h51.53.569,Intentional building,2024.1.5,None,2024-11-11 08h52.05.649577 +0530,
0.7,1000,exp,14,9,177,8,1204.4475348000415,,1204.4329149997793,1204.4475348000415,1205.4477571998723,1205.4477571998723,1205.4477571998723,1205.9341269000433,space,0.4823265001177788,None,1205.9349110000767,1206.647518566406,1206.9592272001319,1206.9465640001,1206.9466216997243,1206.9592272001319,1206.9592272001319,1206.9592272001319,1210.1987346997485,735,1,[3.2498004999943078],[3.249814100097865],0001,001,2024-11-11_08h51.53.569,Intentional building,2024.1.5,None,2024-11-11 08h52.05.649577 +0530,
0.7,1000,exp,14,10,178,5,1210.2143374001607,,1210.1996239,1210.2143374001607,1211.2143572000787,1211.2143572000787,1211.2143572000787,1213.6491113998927,space,2.4214757001027465,None,1213.6499429000542,1214.3642237666684,1214.6801955001429,1214.6669311998412,1214.6669779000804,1214.6801955001429,1214.6801955001429,1214.6801955001429,1217.0162324998528,935,1,[2.3470331002026796],[2.3470423999242485],0001,001,2024-11-11_08h51.53.569,Intentional building,2024.1.5,None,2024-11-11 08h52.05.649577 +0530,
0.1,1000,exp,14,11,179,6,1217.031065999996,,1217.0175091000274,1217.031065999996,1218.0309218997136,1218.0309218997136,1218.0309218997136,1218.7831755001098,space,0.7452770001254976,None,1218.7837886000052,1218.8977837665627,1219.2132850000635,1219.1990584000014,1219.1991063999012,1219.2132850000635,1219.2132850000635,1219.2132850000635,1222.9989173999056,905,1,[3.7977102999575436],[3.797716200351715],0001,001,2024-11-11_08h51.53.569,Intentional building,2024.1.5,None,2024-11-11 08h52.05.649577 +0530,
0.4,1000,exp,15,0,180,10,1223.0144289000891,,1222.999616699759,1223.0144289000891,1224.0144134000875,1224.0144134000875,1224.0144134000875,1224.9663237999193,space,0.938457400072366,None,1224.9671772001311,1225.3810372665214,1225.7011569999158,1225.6773930001073,1225.6774567998946,1225.7011569999158,1225.7011569999158,1225.7011569999158,1229.9823272000067,430,1,[4.302728000096977],[4.302735799923539],0001,001,2024-11-11_08h51.53.569,Intentional building,2024.1.5,None,2024-11-11 08h52.05.649577 +0530,
0.1,400,unexp,15,1,181,0,1229.997607999947,,1229.983341400046,1229.997607999947,1230.9977528997697,1230.9977528997697,1230.9977528997697,1231.499473199714,space,0.493939199950546,None,1231.5006912997924,1231.6141977664704,1231.9295457000844,1231.9167483998463,1231.9167923000641,1231.9295457000844,1231.9295457000844,1231.9295457000844,1235.2000694000162,545,1,[3.2814329001121223],[3.2814432000741363],0001,001,2024-11-11_08h51.53.569,Intentional building,2024.1.5,None,2024-11-11 08h52.05.649577 +0530,
0.4,1000,exp,15,2,182,4,1235.214693899732,,1235.20075479988,1235.214693899732,1236.2142444998026,1236.2142444998026,1236.2142444998026,1238.333335999865,space,2.1096324999816716,None,1238.3341314997524,1238.74753576663,1239.0573355997913,1239.0468604997732,1239.0469148000702,1239.0573355997913,1239.0573355997913,1239.0573355997913,1242.1001149998046,645,1,[3.0507908002473414],[3.0508142998442054],0001,001,2024-11-11_08h51.53.569,Intentional building,2024.1.5,None,2024-11-11 08h52.05.649577 +0530,
0.1,1000,exp,15,3,183,3,1242.1145226000808,,1242.1017899997532,1242.1145226000808,1243.1145592001267,1243.1145592001267,1243.1145592001267,1243.6342341001146,space,0.5072301998734474,None,1243.6353826997802,1243.7477592668185,1244.0582940997556,1244.0472870999947,1244.0473348000087,1244.0582940997556,1244.0582940997556,1244.0582940997556,1247.915773099754,745,1,[3.8657503998838365],[3.865761899854988],0001,001,2024-11-11_08h51.53.569,Intentional building,2024.1.5,None,2024-11-11 08h52.05.649577 +0530,
0.4,1000,exp,15,4,184,7,1247.9309598999098,,1247.916715099942,1247.9309598999098,1248.9310662997887,1248.9310662997887,1248.9310662997887,1249.532356100157,space,0.5873254998587072,None,1249.5330499997362,1249.9476555665644,1250.2620803001337,1250.2468958999962,1250.2469556001015,1250.2620803001337,1250.2620803001337,1250.2620803001337,1253.065489300061,905,1,[2.816274399869144],[2.8162806998007],0001,001,2024-11-11_08h51.53.569,Intentional building,2024.1.5,None,2024-11-11 08h52.05.649577 +0530,
0.7,1000,exp,15,5,185,8,1253.080920800101,,1253.0661341999657,1253.080920800101,1254.0809464999475,1254.0809464999475,1254.0809464999475,1255.217195500154,space,1.1338856997899711,None,1255.2181417001411,1255.931023966583,1256.2401406997815,1256.22691940004,1256.226966300048,1256.2401406997815,1256.2401406997815,1256.2401406997815,1258.1823645001277,755,1,[1.9529730998910964],[1.952983799856156],0001,001,2024-11-11_08h51.53.569,Intentional building,2024.1.5,None,2024-11-11 08h52.05.649577 +0530,
0.1,1000,exp,15,6,186,9,1258.1978048998863,,1258.1834736000746,1258.1978048998863,1259.1978087997995,1259.1978087997995,1259.1978087997995,1259.6508460999466,space,0.4501990000717342,None,1259.6516925999895,1259.7642558664704,1260.0795919001102,1260.067001100164,1260.0670476998203,1260.0795919001102,1260.0795919001102,1260.0795919001102,1264.0825147000141,345 ,1,[4.01334169972688],[4.013356699608266],0001,001,2024-11-11_08h51.53.569,Intentional building,2024.1.5,None,2024-11-11 08h52.05.649577 +0530,
0.7,1000,exp,15,7,187,5,1264.0977114997804,,1264.0835787998512,1264.0977114997804,1265.0977516998537,1265.0977516998537,1265.0977516998537,1265.9494611001574,space,0.8426411999389529,None,1265.9502841001377,1266.6643269668023,1266.9800698999316,1266.9670222997665,1266.9670715001412,1266.9800698999316,1266.9800698999316,1266.9800698999316,1270.4823481999338,756,1,[3.513126800302416],[3.5131360003724694],0001,001,2024-11-11_08h51.53.569,Intentional building,2024.1.5,None,2024-11-11 08h52.05.649577 +0530,
0.7,1000,exp,15,8,188,11,1270.4975759000517,,1270.4833824001253,1270.4975759000517,1271.497781299986,1271.497781299986,1271.497781299986,1275.7327711000107,space,4.217925999779254,None,1275.7335920999758,1276.4478599667239,1276.7617951999418,1276.7467450997792,1276.7468002997339,1276.7617951999418,1276.7617951999418,1276.7617951999418,1282.9322140999138,623,1,[6.183274099603295],[6.183280299883336],0001,001,2024-11-11_08h51.53.569,Intentional building,2024.1.5,None,2024-11-11 08h52.05.649577 +0530,
0.1,1000,exp,15,9,189,6,1282.947858599946,,1282.9329152000137,1282.947858599946,1283.9477657000534,1283.9477657000534,1283.9477657000534,1285.2163705001585,space,1.2580881002359092,None,1285.2173578999937,1285.3310779664355,1285.6417478998192,1285.626840800047,1285.6268869000487,1285.6417478998192,1285.6417478998192,1285.6417478998192,1295.8997650998645,855,1,[10.270606600213796],[10.27061800006777],0001,001,2024-11-11_08h51.53.569,Intentional building,2024.1.5,None,2024-11-11 08h52.05.649577 +0530,
0.4,400,unexp,15,10,190,1,1295.9143587998115,,1295.9007716998458,1295.9143587998115,1296.9148094998673,1296.9148094998673,1296.9148094998673,1297.6165473000146,space,0.6987499003298581,None,1297.6173379998654,1298.031012466705,1298.3410434001125,1298.3268508999608,1298.3269007997587,1298.3410434001125,1298.3410434001125,1298.3410434001125,1300.6154207997024,345,1,[2.2864478998817503],[2.286454000044614],0001,001,2024-11-11_08h51.53.569,Intentional building,2024.1.5,None,2024-11-11 08h52.05.649577 +0530,
0.7,400,unexp,15,11,191,2,1300.6310686999932,,1300.6167009999044,1300.6310686999932,1301.6311641000211,1301.6311641000211,1301.6311641000211,1303.4830140997656,space,1.8435491998679936,None,1303.483814000152,1304.1977575664098,1304.5128282997757,1304.496611900162,1304.496664099861,1304.5128282997757,1304.5128282997757,1304.5128282997757,1308.965729500167,355,1,[4.46696349978447],[4.466970699839294],0001,001,2024-11-11_08h51.53.569,Intentional building,2024.1.5,None,2024-11-11 08h52.05.649577 +0530,
0.7,400,unexp,16,0,192,2,1308.9812396997586,,1308.9666426000185,1308.9812396997586,1309.9813187001273,1309.9813187001273,1309.9813187001273,1310.4830233999528,space,0.49599070008844137,None,1310.4838164998218,1311.1977917664374,1311.509068899788,1311.4965519998223,1311.4966012998484,1311.509068899788,1311.509068899788,1311.509068899788,1316.6154411998577,905,1,[5.116758199874312],[5.116766400169581],0001,001,2024-11-11_08h51.53.569,Intentional building,2024.1.5,None,2024-11-11 08h52.05.649577 +0530,
0.1,400,unexp,16,1,193,0,1316.6310306000523,,1316.6160959997214,1316.6310306000523,1317.6310370997526,1317.6310370997526,1317.6310370997526,1319.367016399745,space,1.732911900151521,None,1319.36782220006,1319.4810593664336,1319.7857050998136,1319.7764659998938,1319.776504199952,1319.7857050998136,1319.7857050998136,1319.7857050998136,1322.265799799934,655,1,[2.4874821002595127],[2.487491600215435],0001,001,2024-11-11_08h51.53.569,Intentional building,2024.1.5,None,2024-11-11 08h52.05.649577 +0530,
0.4,1000,exp,16,2,194,10,1322.2811887999997,,1322.2668292997405,1322.2811887999997,1323.2813423001207,1323.2813423001207,1323.2813423001207,1324.8327343999408,space,1.5470350999385118,None,1324.8335111001506,1325.2477367665308,1325.55986069981,1325.546837199945,1325.546893300023,1325.55986069981,1325.55986069981,1325.55986069981,1328.6991090998054,655,1,[3.1491709002293646],[3.1491797999478877],0001,001,2024-11-11_08h51.53.569,Intentional building,2024.1.5,None,2024-11-11 08h52.05.649577 +0530,
0.1,1000,exp,16,3,195,9,1328.7145961001515,,1328.7009060001,1328.7145961001515,1329.7143482998945,1329.7143482998945,1329.7143482998945,1330.9003624999896,space,1.1829480999149382,None,1330.9011904001236,1331.014446566409,1331.3324879999273,1331.317161399871,1331.3172097001225,1331.3324879999273,1331.3324879999273,1331.3324879999273,1334.6659508999437,435,1,[3.3465897999703884],[3.3466030000708997],0001,001,2024-11-11_08h51.53.569,Intentional building,2024.1.5,None,2024-11-11 08h52.05.649577 +0530,
0.7,1000,exp,16,4,196,11,1334.6812593997456,,1334.667155600153,1334.6812593997456,1335.6813266999088,1335.6813266999088,1335.6813266999088,1336.7497422001325,space,1.0654215002432466,None,1336.7504929997958,1337.4644378666455,1337.780552300159,1337.7669031997211,1337.766949699726,1337.780552300159,1337.780552300159,1337.780552300159,1339.7494268999435,905,1,[1.9802152998745441],[1.9802247998304665],0001,001,2024-11-11_08h51.53.569,Intentional building,2024.1.5,None,2024-11-11 08h52.05.649577 +0530,
0.4,1000,exp,16,5,197,7,1339.764538699761,,1339.7504186001606,1339.764538699761,1340.764461599756,1340.764461599756,1340.764461599756,1341.3661083998159,space,0.5841694003902376,None,1341.3671017000452,1341.7811873667563,1342.0891788997687,1342.076822400093,1342.0768695999868,1342.0891788997687,1342.0891788997687,1342.0891788997687,1344.0157566997223,655,1,[1.9365815999917686],[1.9365909001789987],0001,001,2024-11-11_08h51.53.569,Intentional building,2024.1.5,None,2024-11-11 08h52.05.649577 +0530,
0.1,1000,exp,16,6,198,3,1344.0311551997438,,1344.01659870008,1344.0311551997438,1345.0314580998383,1345.0314580998383,1345.0314580998383,1345.7655058000237,space,0.7228970997966826,None,1345.765981500037,1345.8812115668009,1346.1893390999176,1346.1768327997997,1346.176880700048,1346.1893390999176,1346.1893390999176,1346.1893390999176,1349.8660653000697,705,1,[3.68700660020113],[3.687021099962294],0001,001,2024-11-11_08h51.53.569,Intentional building,2024.1.5,None,2024-11-11 08h52.05.649577 +0530,
0.7,1000,exp,16,7,199,5,1349.8811721997336,,1349.8673040000722,1349.8811721997336,1350.8813458997756,1350.8813458997756,1350.8813458997756,1354.0158790000714,space,3.1218896000646055,None,1354.016409699805,1354.7310179668168,1355.0388839999214,1355.0267378999852,1355.026792800054,1355.0388839999214,1355.0388839999214,1355.0388839999214,1358.3824418997392,535,1,[3.353403199929744],[3.353413099888712],0001,001,2024-11-11_08h51.53.569,Intentional building,2024.1.5,None,2024-11-11 08h52.05.649577 +0530,
